"","id","block","trial_number","practice_trial","random_trial","opponent","training_condition","proposer_offer","receiver_offer","color","response_key","response","outcome","reaction_time"
"1","id0001",0,1,1,0,"practice","Practice",7,3,"black","f","accept",3,1864
"2","id0001",0,2,1,0,"practice","Practice",6,4,"black","f","accept",4,683
"3","id0001",1,1,0,0,"AI","None",7,3,"DarkOrchid","f","accept",3,1002
"4","id0001",1,2,0,0,"human","None",4,6,"GoldenRod","f","accept",6,368
"5","id0001",1,3,0,0,"human","None",9,1,"GoldenRod","j","reject",0,911
"6","id0001",1,4,0,0,"AI","None",6,4,"DarkOrchid","f","accept",4,1874
"7","id0001",1,5,0,1,"human","None",7,3,"GoldenRod","f","accept",3,2612
"8","id0001",1,6,0,0,"AI","None",6,4,"DarkOrchid","f","accept",4,4811
"9","id0001",1,7,0,0,"AI","None",9,1,"DarkOrchid","j","reject",0,383
"10","id0001",1,8,0,0,"human","None",8,2,"GoldenRod","f","accept",2,5076
"11","id0001",1,9,0,0,"human","None",9,1,"GoldenRod","j","reject",0,403
"12","id0001",1,10,0,0,"AI","None",7,3,"DarkOrchid","f","accept",3,401
"13","id0001",1,11,0,0,"human","None",6,4,"GoldenRod","f","accept",4,103
"14","id0001",1,12,0,0,"human","None",8,2,"GoldenRod","j","reject",0,1620
"15","id0001",1,13,0,0,"human","None",7,3,"GoldenRod","f","accept",3,820
"16","id0001",1,14,0,0,"human","None",6,4,"GoldenRod","f","accept",4,2700
"17","id0001",1,15,0,0,"AI","None",9,1,"DarkOrchid","j","reject",0,898
"18","id0001",1,16,0,0,"human","None",5,5,"GoldenRod","f","accept",5,675
"19","id0001",1,17,0,0,"AI","None",5,5,"DarkOrchid","f","accept",5,84
"20","id0001",1,18,0,0,"AI","None",5,5,"DarkOrchid","f","accept",5,116
"21","id0001",1,19,0,0,"human","None",5,5,"GoldenRod","f","accept",5,157
"22","id0001",1,20,0,0,"AI","None",4,6,"DarkOrchid","f","accept",6,3075
"23","id0001",1,21,0,0,"human","None",4,6,"GoldenRod","f","accept",6,913
"24","id0001",1,22,0,0,"AI","None",8,2,"DarkOrchid","j","reject",0,7576
"25","id0001",1,23,0,0,"AI","None",4,6,"DarkOrchid","f","accept",6,14127
"26","id0001",1,24,0,0,"AI","None",8,2,"DarkOrchid","j","reject",0,2648
"27","id0002",0,1,1,0,"practice","Practice",0,10,"black","f","accept",10,1450
"28","id0002",0,2,1,0,"practice","Practice",4,6,"black","f","accept",6,1088
"29","id0002",1,1,0,0,"human","None",9,1,"DarkOrchid","j","reject",0,832
"30","id0002",1,2,0,0,"AI","None",8,2,"GoldenRod","j","reject",0,754
"31","id0002",1,3,0,0,"human","None",9,1,"DarkOrchid","j","reject",0,391
"32","id0002",1,4,0,0,"AI","None",9,1,"GoldenRod","j","reject",0,539
"33","id0002",1,5,0,0,"AI","None",5,5,"GoldenRod","f","accept",5,436
"34","id0002",1,6,0,0,"human","None",4,6,"DarkOrchid","f","accept",6,70
"35","id0002",1,7,0,0,"AI","None",6,4,"GoldenRod","f","accept",4,42
"36","id0002",1,8,0,0,"AI","None",9,1,"GoldenRod","j","reject",0,356
"37","id0002",1,9,0,0,"human","None",7,3,"DarkOrchid","f","accept",3,7
"38","id0002",1,10,0,1,"AI","None",4,6,"GoldenRod","f","accept",6,18
"39","id0002",1,11,0,0,"human","None",5,5,"DarkOrchid","f","accept",5,78
"40","id0002",1,12,0,0,"AI","None",7,3,"GoldenRod","f","accept",3,667
"41","id0002",1,13,0,0,"AI","None",6,4,"GoldenRod","f","accept",4,38
"42","id0002",1,14,0,0,"human","None",5,5,"DarkOrchid","f","accept",5,80
"43","id0002",1,15,0,0,"human","None",7,3,"DarkOrchid","f","accept",3,663
"44","id0002",1,16,0,0,"AI","None",4,6,"GoldenRod","f","accept",6,438
"45","id0002",1,17,0,0,"human","None",4,6,"DarkOrchid","f","accept",6,122
"46","id0002",1,18,0,0,"human","None",8,2,"DarkOrchid","j","reject",0,497
"47","id0002",1,19,0,0,"AI","None",8,2,"GoldenRod","j","reject",0,433
"48","id0002",1,20,0,0,"AI","None",5,5,"GoldenRod","f","accept",5,34
"49","id0002",1,21,0,0,"AI","None",7,3,"GoldenRod","f","accept",3,409
"50","id0002",1,22,0,0,"human","None",8,2,"DarkOrchid","j","reject",0,236
"51","id0002",1,23,0,0,"human","None",6,4,"DarkOrchid","f","accept",4,16
"52","id0002",1,24,0,0,"human","None",6,4,"DarkOrchid","f","accept",4,480
"53","id0003",0,1,1,0,"practice","Practice",5,5,"black","f","accept",5,384
"54","id0003",0,2,1,0,"practice","Practice",7,3,"black","f","accept",3,1255
"55","id0003",1,1,0,0,"AI","None",6,4,"DarkOrchid","f","accept",4,177
"56","id0003",1,2,0,0,"AI","None",9,1,"DarkOrchid","j","reject",0,872
"57","id0003",1,3,0,0,"AI","None",4,6,"DarkOrchid","f","accept",6,554
"58","id0003",1,4,0,0,"human","None",8,2,"GoldenRod","j","reject",0,647
"59","id0003",1,5,0,0,"AI","None",5,5,"DarkOrchid","f","accept",5,464
"60","id0003",1,6,0,0,"AI","None",7,3,"DarkOrchid","f","accept",3,693
"61","id0003",1,7,0,0,"human","None",5,5,"GoldenRod","f","accept",5,621
"62","id0003",1,8,0,0,"AI","None",8,2,"DarkOrchid","j","reject",0,1141
"63","id0003",1,9,0,0,"AI","None",4,6,"DarkOrchid","f","accept",6,330
"64","id0003",1,10,0,0,"human","None",5,5,"GoldenRod","f","accept",5,392
"65","id0003",1,11,0,0,"human","None",9,1,"GoldenRod","j","reject",0,158
"66","id0003",1,12,0,0,"human","None",9,1,"GoldenRod","j","reject",0,604
"67","id0003",1,13,0,1,"AI","None",7,3,"DarkOrchid","f","accept",3,337
"68","id0003",1,14,0,0,"human","None",4,6,"GoldenRod","f","accept",6,301
"69","id0003",1,15,0,0,"human","None",8,2,"GoldenRod","f","accept",2,416
"70","id0003",1,16,0,0,"human","None",6,4,"GoldenRod","f","accept",4,446
"71","id0003",1,17,0,0,"human","None",7,3,"GoldenRod","f","accept",3,346
"72","id0003",1,18,0,0,"human","None",7,3,"GoldenRod","f","accept",3,398
"73","id0003",1,19,0,0,"AI","None",9,1,"DarkOrchid","j","reject",0,487
"74","id0003",1,20,0,0,"human","None",6,4,"GoldenRod","f","accept",4,339
"75","id0003",1,21,0,0,"AI","None",6,4,"DarkOrchid","f","accept",4,530
"76","id0003",1,22,0,0,"AI","None",5,5,"DarkOrchid","f","accept",5,626
"77","id0003",1,23,0,0,"AI","None",8,2,"DarkOrchid","f","accept",2,602
"78","id0003",1,24,0,0,"human","None",4,6,"GoldenRod","f","accept",6,524
"79","id0004",0,1,1,0,"practice","Practice",2,8,"black","f","accept",8,824
"80","id0004",0,2,1,0,"practice","Practice",7,3,"black","f","accept",3,155
"81","id0004",1,1,0,0,"AI","None",7,3,"DarkOrchid","f","accept",3,3820
"82","id0004",1,2,0,0,"AI","None",6,4,"DarkOrchid","f","accept",4,20
"83","id0004",1,3,0,0,"AI","None",4,6,"DarkOrchid","f","accept",6,712
"84","id0004",1,4,0,0,"human","None",6,4,"GoldenRod","f","accept",4,2418
"85","id0004",1,5,0,0,"human","None",8,2,"GoldenRod","f","accept",2,922
"86","id0004",1,6,0,0,"human","None",7,3,"GoldenRod","f","accept",3,1192
"87","id0004",1,7,0,0,"AI","None",5,5,"DarkOrchid","f","accept",5,558
"88","id0004",1,8,0,0,"human","None",7,3,"GoldenRod","f","accept",3,632
"89","id0004",1,9,0,0,"AI","None",8,2,"DarkOrchid","j","reject",0,3320
"90","id0004",1,10,0,0,"human","None",4,6,"GoldenRod","f","accept",6,1047
"91","id0004",1,11,0,0,"AI","None",8,2,"DarkOrchid","j","reject",0,2557
"92","id0004",1,12,0,0,"AI","None",5,5,"DarkOrchid","f","accept",5,922
"93","id0004",1,13,0,0,"human","None",9,1,"GoldenRod","f","accept",1,1661
"94","id0004",1,14,0,0,"human","None",6,4,"GoldenRod","f","accept",4,715
"95","id0004",1,15,0,1,"AI","None",6,4,"DarkOrchid","f","accept",4,575
"96","id0004",1,16,0,0,"human","None",5,5,"GoldenRod","f","accept",5,698
"97","id0004",1,17,0,0,"human","None",4,6,"GoldenRod","f","accept",6,702
"98","id0004",1,18,0,0,"AI","None",9,1,"DarkOrchid","j","reject",0,1661
"99","id0004",1,19,0,0,"AI","None",7,3,"DarkOrchid","f","accept",3,761
"100","id0004",1,20,0,0,"AI","None",9,1,"DarkOrchid","j","reject",0,3419
"101","id0004",1,21,0,0,"AI","None",4,6,"DarkOrchid","f","accept",6,1228
"102","id0004",1,22,0,0,"human","None",9,1,"GoldenRod","f","accept",1,856
"103","id0004",1,23,0,0,"human","None",8,2,"GoldenRod","f","accept",2,738
"104","id0004",1,24,0,0,"human","None",5,5,"GoldenRod","f","accept",5,683
"105","id0005",0,1,1,0,"practice","Practice",5,5,"black","f","accept",5,3793
"106","id0005",0,2,1,0,"practice","Practice",3,7,"black","f","accept",7,615
"107","id0005",1,1,0,0,"AI","None",5,5,"GoldenRod","f","accept",5,646
"108","id0005",1,2,0,0,"AI","None",9,1,"GoldenRod","f","accept",1,1182
"109","id0005",1,3,0,0,"human","None",7,3,"DarkOrchid","f","accept",3,668
"110","id0005",1,4,0,0,"AI","None",7,3,"GoldenRod","f","accept",3,630
"111","id0005",1,5,0,0,"AI","None",9,1,"GoldenRod","f","accept",1,456
"112","id0005",1,6,0,0,"human","None",9,1,"DarkOrchid","f","accept",1,470
"113","id0005",1,7,0,0,"AI","None",4,6,"GoldenRod","f","accept",6,421
"114","id0005",1,8,0,0,"human","None",8,2,"DarkOrchid","f","accept",2,570
"115","id0005",1,9,0,0,"human","None",4,6,"DarkOrchid","f","accept",6,383
"116","id0005",1,10,0,0,"human","None",7,3,"DarkOrchid","f","accept",3,392
"117","id0005",1,11,0,0,"AI","None",4,6,"GoldenRod","f","accept",6,310
"118","id0005",1,12,0,0,"human","None",4,6,"DarkOrchid","f","accept",6,631
"119","id0005",1,13,0,0,"human","None",5,5,"DarkOrchid","f","accept",5,331
"120","id0005",1,14,0,0,"AI","None",8,2,"GoldenRod","f","accept",2,323
"121","id0005",1,15,0,1,"AI","None",6,4,"GoldenRod","f","accept",4,325
"122","id0005",1,16,0,0,"human","None",8,2,"DarkOrchid","f","accept",2,337
"123","id0005",1,17,0,0,"human","None",9,1,"DarkOrchid","f","accept",1,307
"124","id0005",1,18,0,0,"human","None",5,5,"DarkOrchid","f","accept",5,387
"125","id0005",1,19,0,0,"AI","None",6,4,"GoldenRod","f","accept",4,383
"126","id0005",1,20,0,0,"AI","None",8,2,"GoldenRod","f","accept",2,395
"127","id0005",1,21,0,0,"AI","None",5,5,"GoldenRod","f","accept",5,336
"128","id0005",1,22,0,0,"AI","None",7,3,"GoldenRod","f","accept",3,677
"129","id0005",1,23,0,0,"human","None",6,4,"DarkOrchid","f","accept",4,277
"130","id0005",1,24,0,0,"human","None",6,4,"DarkOrchid","f","accept",4,268
"131","id0006",0,1,1,0,"practice","Practice",3,7,"black","f","accept",7,433
"132","id0006",0,2,1,0,"practice","Practice",3,7,"black","f","accept",7,287
"133","id0006",1,1,0,0,"AI","None",4,6,"GoldenRod","f","accept",6,361
"134","id0006",1,2,0,0,"AI","None",9,1,"GoldenRod","f","accept",1,319
"135","id0006",1,3,0,1,"human","None",9,1,"DarkOrchid","f","accept",1,736
"136","id0006",1,4,0,0,"human","None",5,5,"DarkOrchid","f","accept",5,556
"137","id0006",1,5,0,0,"AI","None",9,1,"GoldenRod","f","accept",1,399
"138","id0006",1,6,0,0,"AI","None",7,3,"GoldenRod","f","accept",3,292
"139","id0006",1,7,0,0,"AI","None",6,4,"GoldenRod","f","accept",4,298
"140","id0006",1,8,0,0,"AI","None",5,5,"GoldenRod","f","accept",5,291
"141","id0006",1,9,0,0,"AI","None",8,2,"GoldenRod","f","accept",2,316
"142","id0006",1,10,0,0,"human","None",7,3,"DarkOrchid","f","accept",3,335
"143","id0006",1,11,0,0,"human","None",4,6,"DarkOrchid","f","accept",6,281
"144","id0006",1,12,0,0,"AI","None",4,6,"GoldenRod","f","accept",6,251
"145","id0006",1,13,0,0,"human","None",6,4,"DarkOrchid","f","accept",4,315
"146","id0006",1,14,0,0,"AI","None",5,5,"GoldenRod","f","accept",5,4
"147","id0006",1,15,0,0,"human","None",8,2,"DarkOrchid","f","accept",2,425
"148","id0006",1,16,0,0,"human","None",9,1,"DarkOrchid","f","accept",1,355
"149","id0006",1,17,0,0,"AI","None",8,2,"GoldenRod","f","accept",2,306
"150","id0006",1,18,0,0,"AI","None",7,3,"GoldenRod","f","accept",3,1315
"151","id0006",1,19,0,0,"human","None",8,2,"DarkOrchid","f","accept",2,931
"152","id0006",1,20,0,0,"AI","None",6,4,"GoldenRod","f","accept",4,308
"153","id0006",1,21,0,0,"human","None",4,6,"DarkOrchid","f","accept",6,376
"154","id0006",1,22,0,0,"human","None",6,4,"DarkOrchid","f","accept",4,350
"155","id0006",1,23,0,0,"human","None",7,3,"DarkOrchid","f","accept",3,347
"156","id0006",1,24,0,0,"human","None",5,5,"DarkOrchid","f","accept",5,574
"157","id0008",0,1,1,0,"practice","Practice",2,8,"black","f","accept",8,767
"158","id0008",0,2,1,0,"practice","Practice",8,2,"black","j","reject",0,3704
"159","id0008",1,1,0,0,"human","None",7,3,"GoldenRod","j","reject",0,2781
"160","id0008",1,2,0,0,"human","None",4,6,"GoldenRod","f","accept",6,731
"161","id0008",1,3,0,0,"human","None",6,4,"GoldenRod","j","reject",0,266
"162","id0008",1,4,0,0,"AI","None",8,2,"DarkOrchid","j","reject",0,314
"163","id0008",1,5,0,0,"human","None",4,6,"GoldenRod","f","accept",6,237
"164","id0008",1,6,0,0,"AI","None",7,3,"DarkOrchid","j","reject",0,55
"165","id0008",1,7,0,0,"human","None",8,2,"GoldenRod","j","reject",0,261
"166","id0008",1,8,0,0,"AI","None",5,5,"DarkOrchid","f","accept",5,7300
"167","id0008",1,9,0,0,"AI","None",4,6,"DarkOrchid","f","accept",6,334
"168","id0008",1,10,0,0,"AI","None",6,4,"DarkOrchid","j","reject",0,611
"169","id0008",1,11,0,0,"human","None",5,5,"GoldenRod","f","accept",5,403
"170","id0008",1,12,0,0,"human","None",6,4,"GoldenRod","j","reject",0,725
"171","id0008",1,13,0,0,"human","None",5,5,"GoldenRod","f","accept",5,911
"172","id0008",1,14,0,0,"AI","None",8,2,"DarkOrchid","j","reject",0,377
"173","id0008",1,15,0,0,"AI","None",5,5,"DarkOrchid","f","accept",5,262
"174","id0008",1,16,0,0,"AI","None",7,3,"DarkOrchid","j","reject",0,287
"175","id0008",1,17,0,0,"AI","None",9,1,"DarkOrchid","j","reject",0,274
"176","id0008",1,18,0,0,"human","None",7,3,"GoldenRod","j","reject",0,370
"177","id0008",1,19,0,0,"human","None",9,1,"GoldenRod","j","reject",0,421
"178","id0008",1,20,0,0,"human","None",9,1,"GoldenRod","j","reject",0,346
"179","id0008",1,21,0,1,"AI","None",4,6,"DarkOrchid","f","accept",6,248
"180","id0008",1,22,0,0,"AI","None",6,4,"DarkOrchid","j","reject",0,1024
"181","id0008",1,23,0,0,"AI","None",9,1,"DarkOrchid","j","reject",0,257
"182","id0008",1,24,0,0,"human","None",8,2,"GoldenRod","j","reject",0,253
"183","id0009",0,1,1,0,"practice","Practice",7,3,"black","j","reject",0,676
"184","id0009",0,2,1,0,"practice","Practice",3,7,"black","f","accept",7,440
"185","id0009",1,1,0,0,"human","None",6,4,"DarkOrchid","j","reject",0,367
"186","id0009",1,2,0,0,"human","None",4,6,"DarkOrchid","f","accept",6,334
"187","id0009",1,3,0,0,"AI","None",7,3,"GoldenRod","j","reject",0,411
"188","id0009",1,4,0,0,"human","None",9,1,"DarkOrchid","j","reject",0,345
"189","id0009",1,5,0,0,"human","None",6,4,"DarkOrchid","j","reject",0,439
"190","id0009",1,6,0,0,"AI","None",6,4,"GoldenRod","j","reject",0,312
"191","id0009",1,7,0,0,"AI","None",7,3,"GoldenRod","j","reject",0,345
"192","id0009",1,8,0,0,"human","None",4,6,"DarkOrchid","f","accept",6,285
"193","id0009",1,9,0,0,"human","None",5,5,"DarkOrchid","f","accept",5,319
"194","id0009",1,10,0,0,"human","None",8,2,"DarkOrchid","j","reject",0,383
"195","id0009",1,11,0,0,"AI","None",4,6,"GoldenRod","f","accept",6,351
"196","id0009",1,12,0,0,"AI","None",9,1,"GoldenRod","j","reject",0,347
"197","id0009",1,13,0,0,"human","None",7,3,"DarkOrchid","j","reject",0,318
"198","id0009",1,14,0,0,"AI","None",9,1,"GoldenRod","j","reject",0,423
"199","id0009",1,15,0,0,"AI","None",8,2,"GoldenRod","j","reject",0,319
"200","id0009",1,16,0,0,"AI","None",5,5,"GoldenRod","f","accept",5,387
"201","id0009",1,17,0,1,"AI","None",8,2,"GoldenRod","j","reject",0,355
"202","id0009",1,18,0,0,"AI","None",5,5,"GoldenRod","f","accept",5,475
"203","id0009",1,19,0,0,"AI","None",6,4,"GoldenRod","j","reject",0,292
"204","id0009",1,20,0,0,"human","None",8,2,"DarkOrchid","j","reject",0,504
"205","id0009",1,21,0,0,"human","None",5,5,"DarkOrchid","f","accept",5,922
"206","id0009",1,22,0,0,"human","None",9,1,"DarkOrchid","j","reject",0,393
"207","id0009",1,23,0,0,"AI","None",4,6,"GoldenRod","f","accept",6,363
"208","id0009",1,24,0,0,"human","None",7,3,"DarkOrchid","j","reject",0,326
"209","id0010",0,1,1,0,"practice","Practice",4,6,"black","f","accept",6,427
"210","id0010",0,2,1,0,"practice","Practice",9,1,"black","f","accept",1,674
"211","id0010",1,1,0,0,"AI","None",5,5,"GoldenRod","f","accept",5,479
"212","id0010",1,2,0,0,"human","None",7,3,"DarkOrchid","j","reject",0,605
"213","id0010",1,3,0,0,"human","None",5,5,"DarkOrchid","f","accept",5,417
"214","id0010",1,4,0,0,"AI","None",4,6,"GoldenRod","f","accept",6,1061
"215","id0010",1,5,0,0,"AI","None",9,1,"GoldenRod","j","reject",0,360
"216","id0010",1,6,0,0,"human","None",6,4,"DarkOrchid","j","reject",0,752
"217","id0010",1,7,0,0,"AI","None",7,3,"GoldenRod","j","reject",0,405
"218","id0010",1,8,0,0,"human","None",7,3,"DarkOrchid","j","reject",0,245
"219","id0010",1,9,0,1,"human","None",4,6,"DarkOrchid","f","accept",6,321
"220","id0010",1,10,0,0,"AI","None",5,5,"GoldenRod","f","accept",5,72
"221","id0010",1,11,0,0,"human","None",9,1,"DarkOrchid","j","reject",0,265
"222","id0010",1,12,0,0,"human","None",4,6,"DarkOrchid","f","accept",6,351
"223","id0010",1,13,0,0,"human","None",9,1,"DarkOrchid","j","reject",0,258
"224","id0010",1,14,0,0,"AI","None",6,4,"GoldenRod","f","accept",4,376
"225","id0010",1,15,0,0,"human","None",8,2,"DarkOrchid","j","reject",0,170
"226","id0010",1,16,0,0,"AI","None",7,3,"GoldenRod","j","reject",0,324
"227","id0010",1,17,0,0,"AI","None",8,2,"GoldenRod","j","reject",0,554
"228","id0010",1,18,0,0,"AI","None",4,6,"GoldenRod","f","accept",6,298
"229","id0010",1,19,0,0,"human","None",8,2,"DarkOrchid","j","reject",0,265
"230","id0010",1,20,0,0,"AI","None",8,2,"GoldenRod","f","accept",2,302
"231","id0010",1,21,0,0,"AI","None",9,1,"GoldenRod","f","accept",1,273
"232","id0010",1,22,0,0,"human","None",6,4,"DarkOrchid","j","reject",0,325
"233","id0010",1,23,0,0,"human","None",5,5,"DarkOrchid","f","accept",5,101
"234","id0010",1,24,0,0,"AI","None",6,4,"GoldenRod","f","accept",4,310
"235","id0011",0,1,1,0,"practice","Practice",4,6,"black","f","accept",6,2431
"236","id0011",0,2,1,0,"practice","Practice",3,7,"black","f","accept",7,426
"237","id0011",1,1,0,0,"human","None",4,6,"DarkOrchid","f","accept",6,1226
"238","id0011",1,2,0,0,"human","None",7,3,"DarkOrchid","f","accept",3,6121
"239","id0011",1,3,0,0,"AI","None",4,6,"GoldenRod","f","accept",6,608
"240","id0011",1,4,0,0,"human","None",8,2,"DarkOrchid","f","accept",2,6798
"241","id0011",1,5,0,0,"AI","None",8,2,"GoldenRod","f","accept",2,289
"242","id0011",1,6,0,0,"human","None",9,1,"DarkOrchid","j","reject",0,131
"243","id0011",1,7,0,0,"human","None",4,6,"DarkOrchid","f","accept",6,331
"244","id0011",1,8,0,0,"AI","None",5,5,"GoldenRod","f","accept",5,230
"245","id0011",1,9,0,0,"human","None",9,1,"DarkOrchid","j","reject",0,4237
"246","id0011",1,10,0,0,"AI","None",5,5,"GoldenRod","f","accept",5,361
"247","id0011",1,11,0,0,"AI","None",6,4,"GoldenRod","f","accept",4,284
"248","id0011",1,12,0,0,"AI","None",4,6,"GoldenRod","f","accept",6,375
"249","id0011",1,13,0,0,"human","None",8,2,"DarkOrchid","f","accept",2,1802
"250","id0011",1,14,0,0,"AI","None",7,3,"GoldenRod","f","accept",3,304
"251","id0011",1,15,0,0,"AI","None",9,1,"GoldenRod","f","accept",1,281
"252","id0011",1,16,0,0,"human","None",7,3,"DarkOrchid","f","accept",3,245
"253","id0011",1,17,0,0,"AI","None",6,4,"GoldenRod","f","accept",4,317
"254","id0011",1,18,0,0,"human","None",5,5,"DarkOrchid","f","accept",5,339
"255","id0011",1,19,0,0,"human","None",5,5,"DarkOrchid","f","accept",5,251
"256","id0011",1,20,0,0,"AI","None",9,1,"GoldenRod","f","accept",1,263
"257","id0011",1,21,0,0,"AI","None",7,3,"GoldenRod","f","accept",3,447
"258","id0011",1,22,0,1,"AI","None",8,2,"GoldenRod","f","accept",2,286
"259","id0011",1,23,0,0,"human","None",6,4,"DarkOrchid","f","accept",4,321
"260","id0011",1,24,0,0,"human","None",6,4,"DarkOrchid","f","accept",4,310
"261","id0012",0,1,1,0,"practice","Practice",6,4,"black","j","reject",0,479
"262","id0012",0,2,1,0,"practice","Practice",6,4,"black","j","reject",0,2084
"263","id0012",1,1,0,0,"human","None",4,6,"GoldenRod","f","accept",6,528
"264","id0012",1,2,0,0,"AI","None",8,2,"DarkOrchid","j","reject",0,1569
"265","id0012",1,3,0,0,"human","None",4,6,"GoldenRod","f","accept",6,1332
"266","id0012",1,4,0,0,"human","None",6,4,"GoldenRod","f","accept",4,1462
"267","id0012",1,5,0,0,"human","None",5,5,"GoldenRod","f","accept",5,339
"268","id0012",1,6,0,0,"human","None",8,2,"GoldenRod","j","reject",0,135
"269","id0012",1,7,0,0,"AI","None",9,1,"DarkOrchid","j","reject",0,348
"270","id0012",1,8,0,0,"AI","None",7,3,"DarkOrchid","j","reject",0,349
"271","id0012",1,9,0,0,"human","None",6,4,"GoldenRod","f","accept",4,579
"272","id0012",1,10,0,0,"human","None",9,1,"GoldenRod","j","reject",0,414
"273","id0012",1,11,0,0,"AI","None",9,1,"DarkOrchid","j","reject",0,295
"274","id0012",1,12,0,0,"human","None",7,3,"GoldenRod","j","reject",0,270
"275","id0012",1,13,0,0,"AI","None",4,6,"DarkOrchid","f","accept",6,394
"276","id0012",1,14,0,0,"AI","None",5,5,"DarkOrchid","f","accept",5,1357
"277","id0012",1,15,0,0,"AI","None",5,5,"DarkOrchid","f","accept",5,358
"278","id0012",1,16,0,0,"AI","None",7,3,"DarkOrchid","j","reject",0,310
"279","id0012",1,17,0,0,"AI","None",4,6,"DarkOrchid","f","accept",6,447
"280","id0012",1,18,0,0,"human","None",5,5,"GoldenRod","f","accept",5,597
"281","id0012",1,19,0,0,"AI","None",6,4,"DarkOrchid","f","accept",4,360
"282","id0012",1,20,0,0,"AI","None",8,2,"DarkOrchid","j","reject",0,495
"283","id0012",1,21,0,0,"human","None",7,3,"GoldenRod","j","reject",0,540
"284","id0012",1,22,0,0,"human","None",8,2,"GoldenRod","j","reject",0,366
"285","id0012",1,23,0,0,"AI","None",6,4,"DarkOrchid","f","accept",4,390
"286","id0012",1,24,0,1,"human","None",9,1,"GoldenRod","j","reject",0,324
"287","id0013",0,1,1,0,"practice","Practice",6,4,"black","f","accept",4,828
"288","id0013",0,2,1,0,"practice","Practice",3,7,"black","f","accept",7,617
"289","id0013",1,1,0,0,"human","None",4,6,"DarkOrchid","f","accept",6,671
"290","id0013",1,2,0,0,"AI","None",6,4,"GoldenRod","f","accept",4,457
"291","id0013",1,3,0,0,"AI","None",8,2,"GoldenRod","f","accept",2,711
"292","id0013",1,4,0,0,"AI","None",8,2,"GoldenRod","f","accept",2,690
"293","id0013",1,5,0,0,"human","None",9,1,"DarkOrchid","j","reject",0,1783
"294","id0013",1,6,0,0,"human","None",7,3,"DarkOrchid","f","accept",3,492
"295","id0013",1,7,0,0,"human","None",6,4,"DarkOrchid","f","accept",4,387
"296","id0013",1,8,0,0,"AI","None",7,3,"GoldenRod","f","accept",3,399
"297","id0013",1,9,0,1,"AI","None",5,5,"GoldenRod","f","accept",5,568
"298","id0013",1,10,0,0,"AI","None",9,1,"GoldenRod","j","reject",0,442
"299","id0013",1,11,0,0,"AI","None",4,6,"GoldenRod","f","accept",6,532
"300","id0013",1,12,0,0,"human","None",4,6,"DarkOrchid","f","accept",6,541
"301","id0013",1,13,0,0,"AI","None",5,5,"GoldenRod","f","accept",5,474
"302","id0013",1,14,0,0,"AI","None",4,6,"GoldenRod","f","accept",6,1160
"303","id0013",1,15,0,0,"AI","None",6,4,"GoldenRod","f","accept",4,735
"304","id0013",1,16,0,0,"human","None",7,3,"DarkOrchid","f","accept",3,711
"305","id0013",1,17,0,0,"human","None",5,5,"DarkOrchid","f","accept",5,612
"306","id0013",1,18,0,0,"human","None",9,1,"DarkOrchid","j","reject",0,198
"307","id0013",1,19,0,0,"human","None",5,5,"DarkOrchid","f","accept",5,521
"308","id0013",1,20,0,0,"human","None",8,2,"DarkOrchid","j","reject",0,1559
"309","id0013",1,21,0,0,"human","None",6,4,"DarkOrchid","f","accept",4,752
"310","id0013",1,22,0,0,"human","None",8,2,"DarkOrchid","j","reject",0,1143
"311","id0013",1,23,0,0,"AI","None",9,1,"GoldenRod","j","reject",0,1385
"312","id0013",1,24,0,0,"AI","None",7,3,"GoldenRod","f","accept",3,511
"313","id0014",0,1,1,0,"practice","Practice",3,7,"black","f","accept",7,1040
"314","id0014",0,2,1,0,"practice","Practice",6,4,"black","f","accept",4,413
"315","id0014",1,1,0,0,"AI","None",4,6,"GoldenRod","f","accept",6,531
"316","id0014",1,2,0,0,"AI","None",4,6,"GoldenRod","f","accept",6,411
"317","id0014",1,3,0,0,"human","None",9,1,"DarkOrchid","j","reject",0,492
"318","id0014",1,4,0,0,"human","None",6,4,"DarkOrchid","f","accept",4,475
"319","id0014",1,5,0,0,"AI","None",6,4,"GoldenRod","f","accept",4,7019
"320","id0014",1,6,0,0,"AI","None",7,3,"GoldenRod","j","reject",0,664
"321","id0014",1,7,0,0,"human","None",9,1,"DarkOrchid","j","reject",0,826
"322","id0014",1,8,0,0,"AI","None",7,3,"GoldenRod","j","reject",0,479
"323","id0014",1,9,0,0,"human","None",8,2,"DarkOrchid","j","reject",0,402
"324","id0014",1,10,0,0,"AI","None",5,5,"GoldenRod","f","accept",5,373
"325","id0014",1,11,0,0,"human","None",7,3,"DarkOrchid","j","reject",0,285
"326","id0014",1,12,0,0,"AI","None",5,5,"GoldenRod","f","accept",5,392
"327","id0014",1,13,0,0,"human","None",7,3,"DarkOrchid","j","reject",0,534
"328","id0014",1,14,0,0,"human","None",4,6,"DarkOrchid","f","accept",6,364
"329","id0014",1,15,0,0,"AI","None",8,2,"GoldenRod","j","reject",0,387
"330","id0014",1,16,0,0,"AI","None",6,4,"GoldenRod","f","accept",4,525
"331","id0014",1,17,0,0,"human","None",8,2,"DarkOrchid","j","reject",0,337
"332","id0014",1,18,0,0,"human","None",6,4,"DarkOrchid","f","accept",4,390
"333","id0014",1,19,0,0,"AI","None",9,1,"GoldenRod","j","reject",0,368
"334","id0014",1,20,0,0,"AI","None",9,1,"GoldenRod","j","reject",0,335
"335","id0014",1,21,0,0,"AI","None",8,2,"GoldenRod","j","reject",0,480
"336","id0014",1,22,0,0,"human","None",4,6,"DarkOrchid","f","accept",6,371
"337","id0014",1,23,0,1,"human","None",5,5,"DarkOrchid","f","accept",5,454
"338","id0014",1,24,0,0,"human","None",5,5,"DarkOrchid","f","accept",5,444
"339","id0016",0,1,1,0,"practice","Practice",1,9,"black","f","accept",9,455
"340","id0016",0,2,1,0,"practice","Practice",2,8,"black","f","accept",8,355
"341","id0016",1,1,0,0,"human","None",7,3,"GoldenRod","j","reject",0,300
"342","id0016",1,2,0,0,"AI","None",8,2,"DarkOrchid","j","reject",0,221
"343","id0016",1,3,0,0,"AI","None",5,5,"DarkOrchid","f","accept",5,784
"344","id0016",1,4,0,0,"human","None",7,3,"GoldenRod","j","reject",0,185
"345","id0016",1,5,0,0,"human","None",6,4,"GoldenRod","j","reject",0,192
"346","id0016",1,6,0,0,"AI","None",9,1,"DarkOrchid","j","reject",0,53
"347","id0016",1,7,0,0,"human","None",5,5,"GoldenRod","f","accept",5,148
"348","id0016",1,8,0,0,"AI","None",6,4,"DarkOrchid","j","reject",0,36
"349","id0016",1,9,0,1,"human","None",6,4,"GoldenRod","j","reject",0,66
"350","id0016",1,10,0,0,"AI","None",8,2,"DarkOrchid","j","reject",0,142
"351","id0016",1,11,0,0,"human","None",4,6,"GoldenRod","f","accept",6,66
"352","id0016",1,12,0,0,"human","None",4,6,"GoldenRod","f","accept",6,75
"353","id0016",1,13,0,0,"AI","None",4,6,"DarkOrchid","f","accept",6,94
"354","id0016",1,14,0,0,"human","None",9,1,"GoldenRod","j","reject",0,230
"355","id0016",1,15,0,0,"AI","None",6,4,"DarkOrchid","j","reject",0,138
"356","id0016",1,16,0,0,"AI","None",5,5,"DarkOrchid","f","accept",5,233
"357","id0016",1,17,0,0,"human","None",9,1,"GoldenRod","j","reject",0,202
"358","id0016",1,18,0,0,"AI","None",9,1,"DarkOrchid","j","reject",0,233
"359","id0016",1,19,0,0,"AI","None",4,6,"DarkOrchid","f","accept",6,224
"360","id0016",1,20,0,0,"human","None",8,2,"GoldenRod","j","reject",0,235
"361","id0016",1,21,0,0,"AI","None",7,3,"DarkOrchid","j","reject",0,141
"362","id0016",1,22,0,0,"AI","None",7,3,"DarkOrchid","j","reject",0,201
"363","id0016",1,23,0,0,"human","None",8,2,"GoldenRod","j","reject",0,10
"364","id0016",1,24,0,0,"human","None",5,5,"GoldenRod","f","accept",5,287
"365","id0017",0,1,1,0,"practice","Practice",2,8,"black","f","accept",8,594
"366","id0017",0,2,1,0,"practice","Practice",1,9,"black","f","accept",9,849
"367","id0017",1,1,0,0,"AI","None",9,1,"DarkOrchid","f","accept",1,406
"368","id0017",1,2,0,0,"human","None",8,2,"GoldenRod","f","accept",2,323
"369","id0017",1,3,0,0,"AI","None",6,4,"DarkOrchid","f","accept",4,341
"370","id0017",1,4,0,0,"human","None",6,4,"GoldenRod","f","accept",4,351
"371","id0017",1,5,0,0,"human","None",8,2,"GoldenRod","f","accept",2,574
"372","id0017",1,6,0,0,"AI","None",4,6,"DarkOrchid","f","accept",6,622
"373","id0017",1,7,0,0,"human","None",9,1,"GoldenRod","f","accept",1,451
"374","id0017",1,8,0,1,"AI","None",7,3,"DarkOrchid","f","accept",3,499
"375","id0017",1,9,0,0,"AI","None",5,5,"DarkOrchid","f","accept",5,408
"376","id0017",1,10,0,0,"AI","None",7,3,"DarkOrchid","f","accept",3,288
"377","id0017",1,11,0,0,"AI","None",5,5,"DarkOrchid","f","accept",5,376
"378","id0017",1,12,0,0,"human","None",4,6,"GoldenRod","f","accept",6,533
"379","id0017",1,13,0,0,"AI","None",6,4,"DarkOrchid","f","accept",4,608
"380","id0017",1,14,0,0,"AI","None",4,6,"DarkOrchid","f","accept",6,615
"381","id0017",1,15,0,0,"human","None",6,4,"GoldenRod","f","accept",4,450
"382","id0017",1,16,0,0,"human","None",4,6,"GoldenRod","f","accept",6,370
"383","id0017",1,17,0,0,"AI","None",9,1,"DarkOrchid","f","accept",1,485
"384","id0017",1,18,0,0,"human","None",5,5,"GoldenRod","f","accept",5,410
"385","id0017",1,19,0,0,"human","None",7,3,"GoldenRod","f","accept",3,352
"386","id0017",1,20,0,0,"AI","None",8,2,"DarkOrchid","f","accept",2,384
"387","id0017",1,21,0,0,"AI","None",8,2,"DarkOrchid","f","accept",2,428
"388","id0017",1,22,0,0,"human","None",9,1,"GoldenRod","f","accept",1,346
"389","id0017",1,23,0,0,"human","None",7,3,"GoldenRod","f","accept",3,348
"390","id0017",1,24,0,0,"human","None",5,5,"GoldenRod","f","accept",5,409
"391","id0019",0,1,1,0,"practice","Practice",7,3,"black","f","accept",3,842
"392","id0019",0,2,1,0,"practice","Practice",6,4,"black","j","reject",0,612
"393","id0019",1,1,0,0,"human","None",6,4,"GoldenRod","f","accept",4,553
"394","id0019",1,2,0,0,"human","None",7,3,"GoldenRod","j","reject",0,157
"395","id0019",1,3,0,0,"human","None",8,2,"GoldenRod","j","reject",0,1247
"396","id0019",1,4,0,0,"AI","None",4,6,"DarkOrchid","f","accept",6,308
"397","id0019",1,5,0,0,"human","None",8,2,"GoldenRod","f","accept",2,416
"398","id0019",1,6,0,1,"AI","None",7,3,"DarkOrchid","f","accept",3,439
"399","id0019",1,7,0,0,"AI","None",6,4,"DarkOrchid","f","accept",4,276
"400","id0019",1,8,0,0,"human","None",9,1,"GoldenRod","j","reject",0,1170
"401","id0019",1,9,0,0,"human","None",7,3,"GoldenRod","f","accept",3,499
"402","id0019",1,10,0,0,"AI","None",8,2,"DarkOrchid","f","accept",2,1923
"403","id0019",1,11,0,0,"human","None",6,4,"GoldenRod","f","accept",4,559
"404","id0019",1,12,0,0,"human","None",5,5,"GoldenRod","f","accept",5,386
"405","id0019",1,13,0,0,"AI","None",6,4,"DarkOrchid","f","accept",4,12945
"406","id0019",1,14,0,0,"human","None",4,6,"GoldenRod","f","accept",6,362
"407","id0019",1,15,0,0,"AI","None",5,5,"DarkOrchid","f","accept",5,375
"408","id0019",1,16,0,0,"AI","None",8,2,"DarkOrchid","j","reject",0,593
"409","id0019",1,17,0,0,"human","None",4,6,"GoldenRod","f","accept",6,160
"410","id0019",1,18,0,0,"AI","None",9,1,"DarkOrchid","f","accept",1,1326
"411","id0019",1,19,0,0,"AI","None",9,1,"DarkOrchid","f","accept",1,302
"412","id0019",1,20,0,0,"AI","None",4,6,"DarkOrchid","f","accept",6,45
"413","id0019",1,21,0,0,"AI","None",5,5,"DarkOrchid","f","accept",5,214
"414","id0019",1,22,0,0,"AI","None",7,3,"DarkOrchid","f","accept",3,3204
"415","id0019",1,23,0,0,"human","None",5,5,"GoldenRod","f","accept",5,489
"416","id0019",1,24,0,0,"human","None",9,1,"GoldenRod","j","reject",0,290
"417","id0020",0,1,1,0,"practice","Practice",9,1,"black","j","reject",0,2282
"418","id0020",0,2,1,0,"practice","Practice",4,6,"black","f","accept",6,250
"419","id0020",1,1,0,0,"AI","None",5,5,"GoldenRod","f","accept",5,866
"420","id0020",1,2,0,0,"AI","None",9,1,"GoldenRod","j","reject",0,17997
"421","id0020",1,3,0,0,"human","None",6,4,"DarkOrchid","f","accept",4,237
"422","id0020",1,4,0,0,"human","None",4,6,"DarkOrchid","f","accept",6,205
"423","id0020",1,5,0,0,"AI","None",5,5,"GoldenRod","f","accept",5,250
"424","id0020",1,6,0,0,"human","None",8,2,"DarkOrchid","j","reject",0,300
"425","id0020",1,7,0,0,"human","None",7,3,"DarkOrchid","j","reject",0,199
"426","id0020",1,8,0,0,"human","None",6,4,"DarkOrchid","f","accept",4,70
"427","id0020",1,9,0,0,"AI","None",8,2,"GoldenRod","j","reject",0,279
"428","id0020",1,10,0,0,"AI","None",4,6,"GoldenRod","f","accept",6,156
"429","id0020",1,11,0,0,"AI","None",4,6,"GoldenRod","f","accept",6,253
"430","id0020",1,12,0,0,"AI","None",9,1,"GoldenRod","j","reject",0,311
"431","id0020",1,13,0,0,"AI","None",6,4,"GoldenRod","f","accept",4,187
"432","id0020",1,14,0,0,"human","None",5,5,"DarkOrchid","f","accept",5,217
"433","id0020",1,15,0,0,"human","None",5,5,"DarkOrchid","f","accept",5,36
"434","id0020",1,16,0,0,"AI","None",7,3,"GoldenRod","j","reject",0,147
"435","id0020",1,17,0,0,"AI","None",7,3,"GoldenRod","j","reject",0,48
"436","id0020",1,18,0,0,"human","None",7,3,"DarkOrchid","j","reject",0,115
"437","id0020",1,19,0,0,"human","None",9,1,"DarkOrchid","j","reject",0,44
"438","id0020",1,20,0,1,"human","None",9,1,"DarkOrchid","j","reject",0,153
"439","id0020",1,21,0,0,"AI","None",8,2,"GoldenRod","j","reject",0,199
"440","id0020",1,22,0,0,"AI","None",6,4,"GoldenRod","f","accept",4,16
"441","id0020",1,23,0,0,"human","None",4,6,"DarkOrchid","f","accept",6,155
"442","id0020",1,24,0,0,"human","None",8,2,"DarkOrchid","j","reject",0,42
"443","id0021",0,1,1,0,"practice","Practice",5,5,"black","f","accept",5,1412
"444","id0021",0,2,1,0,"practice","Practice",1,9,"black","f","accept",9,134
"445","id0021",1,1,0,0,"AI","None",7,3,"DarkOrchid","f","accept",3,154
"446","id0021",1,2,0,0,"AI","None",5,5,"DarkOrchid","f","accept",5,146
"447","id0021",1,3,0,0,"AI","None",6,4,"DarkOrchid","f","accept",4,115
"448","id0021",1,4,0,0,"AI","None",9,1,"DarkOrchid","f","accept",1,481
"449","id0021",1,5,0,0,"AI","None",9,1,"DarkOrchid","f","accept",1,136
"450","id0021",1,6,0,0,"human","None",6,4,"GoldenRod","f","accept",4,364
"451","id0021",1,7,0,0,"AI","None",4,6,"DarkOrchid","f","accept",6,630
"452","id0021",1,8,0,0,"human","None",8,2,"GoldenRod","f","accept",2,2836
"453","id0021",1,9,0,1,"human","None",4,6,"GoldenRod","f","accept",6,46
"454","id0021",1,10,0,0,"AI","None",7,3,"DarkOrchid","f","accept",3,796
"455","id0021",1,11,0,0,"human","None",7,3,"GoldenRod","f","accept",3,17
"456","id0021",1,12,0,0,"AI","None",6,4,"DarkOrchid","f","accept",4,219
"457","id0021",1,13,0,0,"human","None",5,5,"GoldenRod","f","accept",5,4317
"458","id0021",1,14,0,0,"human","None",6,4,"GoldenRod","f","accept",4,162
"459","id0021",1,15,0,0,"human","None",4,6,"GoldenRod","f","accept",6,73
"460","id0021",1,16,0,0,"AI","None",8,2,"DarkOrchid","f","accept",2,389
"461","id0021",1,17,0,0,"human","None",9,1,"GoldenRod","f","accept",1,161
"462","id0021",1,18,0,0,"human","None",8,2,"GoldenRod","f","accept",2,207
"463","id0021",1,19,0,0,"AI","None",8,2,"DarkOrchid","f","accept",2,105
"464","id0021",1,20,0,0,"AI","None",5,5,"DarkOrchid","f","accept",5,135
"465","id0021",1,21,0,0,"AI","None",4,6,"DarkOrchid","f","accept",6,59
"466","id0021",1,22,0,0,"human","None",7,3,"GoldenRod","f","accept",3,118
"467","id0021",1,23,0,0,"human","None",5,5,"GoldenRod","f","accept",5,160
"468","id0021",1,24,0,0,"human","None",9,1,"GoldenRod","f","accept",1,143
"469","id0022",0,1,1,0,"practice","Practice",8,2,"black","j","reject",0,1196
"470","id0022",0,2,1,0,"practice","Practice",0,10,"black","j","reject",0,2770
"471","id0022",1,1,0,0,"AI","None",5,5,"GoldenRod","f","accept",5,398
"472","id0022",1,2,0,0,"human","None",7,3,"DarkOrchid","f","accept",3,753
"473","id0022",1,3,0,0,"AI","None",7,3,"GoldenRod","f","accept",3,469
"474","id0022",1,4,0,0,"AI","None",4,6,"GoldenRod","f","accept",6,385
"475","id0022",1,5,0,0,"human","None",4,6,"DarkOrchid","f","accept",6,355
"476","id0022",1,6,0,0,"human","None",8,2,"DarkOrchid","j","reject",0,401
"477","id0022",1,7,0,0,"AI","None",7,3,"GoldenRod","f","accept",3,448
"478","id0022",1,8,0,0,"human","None",6,4,"DarkOrchid","f","accept",4,393
"479","id0022",1,9,0,0,"AI","None",6,4,"GoldenRod","f","accept",4,523
"480","id0022",1,10,0,0,"human","None",7,3,"DarkOrchid","f","accept",3,341
"481","id0022",1,11,0,0,"human","None",9,1,"DarkOrchid","j","reject",0,561
"482","id0022",1,12,0,0,"AI","None",5,5,"GoldenRod","f","accept",5,376
"483","id0022",1,13,0,0,"AI","None",9,1,"GoldenRod","j","reject",0,362
"484","id0022",1,14,0,0,"human","None",9,1,"DarkOrchid","j","reject",0,381
"485","id0022",1,15,0,0,"human","None",4,6,"DarkOrchid","f","accept",6,427
"486","id0022",1,16,0,0,"AI","None",6,4,"GoldenRod","f","accept",4,334
"487","id0022",1,17,0,0,"human","None",5,5,"DarkOrchid","f","accept",5,433
"488","id0022",1,18,0,0,"AI","None",8,2,"GoldenRod","j","reject",0,504
"489","id0022",1,19,0,0,"human","None",8,2,"DarkOrchid","j","reject",0,484
"490","id0022",1,20,0,0,"AI","None",8,2,"GoldenRod","j","reject",0,449
"491","id0022",1,21,0,0,"AI","None",9,1,"GoldenRod","j","reject",0,361
"492","id0022",1,22,0,0,"human","None",5,5,"DarkOrchid","f","accept",5,369
"493","id0022",1,23,0,0,"human","None",6,4,"DarkOrchid","f","accept",4,375
"494","id0022",1,24,0,1,"AI","None",4,6,"GoldenRod","f","accept",6,438
"495","id0023",0,1,1,0,"practice","Practice",4,6,"black","f","accept",6,3865
"496","id0023",0,2,1,0,"practice","Practice",3,7,"black","f","accept",7,2104
"497","id0023",1,1,0,0,"AI","None",9,1,"DarkOrchid","j","reject",0,4186
"498","id0023",1,2,0,0,"AI","None",4,6,"DarkOrchid","f","accept",6,5029
"499","id0023",1,3,0,0,"AI","None",7,3,"DarkOrchid","f","accept",3,2896
"500","id0023",1,4,0,0,"AI","None",8,2,"DarkOrchid","j","reject",0,2667
"501","id0023",1,5,0,0,"AI","None",6,4,"DarkOrchid","f","accept",4,178
"502","id0023",1,6,0,0,"human","None",5,5,"GoldenRod","f","accept",5,1928
"503","id0023",1,7,0,1,"AI","None",8,2,"DarkOrchid","f","accept",2,18974
"504","id0023",1,8,0,0,"human","None",4,6,"GoldenRod","f","accept",6,1173
"505","id0023",1,9,0,0,"human","None",6,4,"GoldenRod","f","accept",4,1279
"506","id0023",1,10,0,0,"human","None",5,5,"GoldenRod","f","accept",5,725
"507","id0023",1,11,0,0,"human","None",6,4,"GoldenRod","f","accept",4,678
"508","id0023",1,12,0,0,"human","None",7,3,"GoldenRod","f","accept",3,2354
"509","id0023",1,13,0,0,"AI","None",6,4,"DarkOrchid","f","accept",4,433
"510","id0023",1,14,0,0,"human","None",9,1,"GoldenRod","j","reject",0,1626
"511","id0023",1,15,0,0,"AI","None",9,1,"DarkOrchid","j","reject",0,654
"512","id0023",1,16,0,0,"human","None",4,6,"GoldenRod","f","accept",6,584
"513","id0023",1,17,0,0,"AI","None",5,5,"DarkOrchid","f","accept",5,652
"514","id0023",1,18,0,0,"AI","None",5,5,"DarkOrchid","f","accept",5,954
"515","id0023",1,19,0,0,"human","None",7,3,"GoldenRod","f","accept",3,1071
"516","id0023",1,20,0,0,"human","None",8,2,"GoldenRod","j","reject",0,3371
"517","id0023",1,21,0,0,"human","None",9,1,"GoldenRod","j","reject",0,1796
"518","id0023",1,22,0,0,"AI","None",7,3,"DarkOrchid","f","accept",3,578
"519","id0023",1,23,0,0,"AI","None",4,6,"DarkOrchid","f","accept",6,467
"520","id0023",1,24,0,0,"human","None",8,2,"GoldenRod","j","reject",0,3043
"521","id0024",0,1,1,0,"practice","Practice",1,9,"black","f","accept",9,2078
"522","id0024",0,2,1,0,"practice","Practice",4,6,"black","f","accept",6,620
"523","id0024",1,1,0,0,"human","None",8,2,"GoldenRod","f","accept",2,1071
"524","id0024",1,2,0,0,"human","None",9,1,"GoldenRod","f","accept",1,955
"525","id0024",1,3,0,0,"human","None",4,6,"GoldenRod","f","accept",6,543
"526","id0024",1,4,0,0,"human","None",6,4,"GoldenRod","f","accept",4,428
"527","id0024",1,5,0,0,"AI","None",9,1,"DarkOrchid","f","accept",1,387
"528","id0024",1,6,0,0,"AI","None",8,2,"DarkOrchid","f","accept",2,384
"529","id0024",1,7,0,0,"human","None",8,2,"GoldenRod","f","accept",2,400
"530","id0024",1,8,0,0,"human","None",5,5,"GoldenRod","f","accept",5,367
"531","id0024",1,9,0,0,"AI","None",6,4,"DarkOrchid","f","accept",4,346
"532","id0024",1,10,0,0,"human","None",4,6,"GoldenRod","f","accept",6,391
"533","id0024",1,11,0,0,"AI","None",8,2,"DarkOrchid","f","accept",2,328
"534","id0024",1,12,0,0,"AI","None",9,1,"DarkOrchid","f","accept",1,335
"535","id0024",1,13,0,0,"human","None",7,3,"GoldenRod","f","accept",3,375
"536","id0024",1,14,0,0,"AI","None",4,6,"DarkOrchid","f","accept",6,313
"537","id0024",1,15,0,0,"human","None",6,4,"GoldenRod","f","accept",4,376
"538","id0024",1,16,0,0,"human","None",5,5,"GoldenRod","f","accept",5,358
"539","id0024",1,17,0,0,"AI","None",6,4,"DarkOrchid","f","accept",4,398
"540","id0024",1,18,0,0,"human","None",7,3,"GoldenRod","f","accept",3,399
"541","id0024",1,19,0,1,"AI","None",5,5,"DarkOrchid","f","accept",5,435
"542","id0024",1,20,0,0,"AI","None",7,3,"DarkOrchid","f","accept",3,401
"543","id0024",1,21,0,0,"AI","None",7,3,"DarkOrchid","f","accept",3,626
"544","id0024",1,22,0,0,"AI","None",4,6,"DarkOrchid","f","accept",6,392
"545","id0024",1,23,0,0,"AI","None",5,5,"DarkOrchid","f","accept",5,425
"546","id0024",1,24,0,0,"human","None",9,1,"GoldenRod","f","accept",1,607
"547","id0025",0,1,1,0,"practice","Practice",8,2,"black","f","accept",2,474
"548","id0025",0,2,1,0,"practice","Practice",3,7,"black","f","accept",7,236
"549","id0025",1,1,0,0,"AI","None",5,5,"DarkOrchid","f","accept",5,266
"550","id0025",1,2,0,0,"human","None",6,4,"GoldenRod","f","accept",4,205
"551","id0025",1,3,0,0,"AI","None",8,2,"DarkOrchid","f","accept",2,1967
"552","id0025",1,4,0,0,"human","None",4,6,"GoldenRod","f","accept",6,38
"553","id0025",1,5,0,0,"human","None",5,5,"GoldenRod","f","accept",5,218
"554","id0025",1,6,0,0,"human","None",7,3,"GoldenRod","f","accept",3,64
"555","id0025",1,7,0,0,"human","None",4,6,"GoldenRod","f","accept",6,108
"556","id0025",1,8,0,0,"human","None",9,1,"GoldenRod","f","accept",1,586
"557","id0025",1,9,0,0,"AI","None",4,6,"DarkOrchid","f","accept",6,140
"558","id0025",1,10,0,0,"human","None",8,2,"GoldenRod","f","accept",2,58
"559","id0025",1,11,0,0,"human","None",7,3,"GoldenRod","f","accept",3,118
"560","id0025",1,12,0,1,"AI","None",7,3,"DarkOrchid","f","accept",3,266
"561","id0025",1,13,0,0,"AI","None",5,5,"DarkOrchid","f","accept",5,41
"562","id0025",1,14,0,0,"AI","None",4,6,"DarkOrchid","f","accept",6,313
"563","id0025",1,15,0,0,"human","None",6,4,"GoldenRod","f","accept",4,166
"564","id0025",1,16,0,0,"AI","None",9,1,"DarkOrchid","f","accept",1,163
"565","id0025",1,17,0,0,"human","None",9,1,"GoldenRod","f","accept",1,115
"566","id0025",1,18,0,0,"AI","None",9,1,"DarkOrchid","f","accept",1,86
"567","id0025",1,19,0,0,"AI","None",6,4,"DarkOrchid","f","accept",4,195
"568","id0025",1,20,0,0,"human","None",5,5,"GoldenRod","f","accept",5,195
"569","id0025",1,21,0,0,"AI","None",8,2,"DarkOrchid","f","accept",2,169
"570","id0025",1,22,0,0,"human","None",8,2,"GoldenRod","f","accept",2,196
"571","id0025",1,23,0,0,"AI","None",7,3,"DarkOrchid","f","accept",3,92
"572","id0025",1,24,0,0,"AI","None",6,4,"DarkOrchid","f","accept",4,231
"573","id0026",0,1,1,0,"practice","Practice",4,6,"black","f","accept",6,2448
"574","id0026",0,2,1,0,"practice","Practice",1,9,"black","f","accept",9,1763
"575","id0026",1,1,0,0,"human","None",4,6,"GoldenRod","f","accept",6,862
"576","id0026",1,2,0,0,"human","None",4,6,"GoldenRod","f","accept",6,659
"577","id0026",1,3,0,0,"human","None",8,2,"GoldenRod","f","accept",2,5109
"578","id0026",1,4,0,0,"human","None",5,5,"GoldenRod","f","accept",5,372
"579","id0026",1,5,0,0,"human","None",5,5,"GoldenRod","f","accept",5,490
"580","id0026",1,6,0,0,"human","None",9,1,"GoldenRod","j","reject",0,2005
"581","id0026",1,7,0,0,"AI","None",4,6,"DarkOrchid","f","accept",6,678
"582","id0026",1,8,0,0,"human","None",8,2,"GoldenRod","f","accept",2,588
"583","id0026",1,9,0,0,"AI","None",6,4,"DarkOrchid","f","accept",4,313
"584","id0026",1,10,0,0,"human","None",6,4,"GoldenRod","f","accept",4,549
"585","id0026",1,11,0,0,"AI","None",7,3,"DarkOrchid","f","accept",3,505
"586","id0026",1,12,0,0,"AI","None",7,3,"DarkOrchid","f","accept",3,501
"587","id0026",1,13,0,0,"AI","None",9,1,"DarkOrchid","j","reject",0,3047
"588","id0026",1,14,0,0,"AI","None",5,5,"DarkOrchid","f","accept",5,1013
"589","id0026",1,15,0,0,"AI","None",9,1,"DarkOrchid","j","reject",0,448
"590","id0026",1,16,0,0,"AI","None",4,6,"DarkOrchid","f","accept",6,341
"591","id0026",1,17,0,0,"human","None",7,3,"GoldenRod","f","accept",3,1609
"592","id0026",1,18,0,0,"AI","None",6,4,"DarkOrchid","f","accept",4,1212
"593","id0026",1,19,0,0,"human","None",7,3,"GoldenRod","f","accept",3,700
"594","id0026",1,20,0,0,"human","None",6,4,"GoldenRod","f","accept",4,391
"595","id0026",1,21,0,1,"AI","None",8,2,"DarkOrchid","f","accept",2,1464
"596","id0026",1,22,0,0,"AI","None",5,5,"DarkOrchid","f","accept",5,1475
"597","id0026",1,23,0,0,"human","None",9,1,"GoldenRod","j","reject",0,34
"598","id0026",1,24,0,0,"AI","None",8,2,"DarkOrchid","f","accept",2,1057
"599","id0028",0,1,1,0,"practice","Practice",8,2,"black","j","reject",0,2026
"600","id0028",0,2,1,0,"practice","Practice",5,5,"black","f","accept",5,939
"601","id0028",1,1,0,0,"human","None",7,3,"GoldenRod","j","reject",0,264
"602","id0028",1,2,0,0,"AI","None",9,1,"DarkOrchid","j","reject",0,788
"603","id0028",1,3,0,0,"AI","None",8,2,"DarkOrchid","j","reject",0,186
"604","id0028",1,4,0,0,"human","None",5,5,"GoldenRod","f","accept",5,398
"605","id0028",1,5,0,0,"AI","None",9,1,"DarkOrchid","j","reject",0,529
"606","id0028",1,6,0,0,"AI","None",4,6,"DarkOrchid","f","accept",6,112
"607","id0028",1,7,0,0,"AI","None",7,3,"DarkOrchid","j","reject",0,375
"608","id0028",1,8,0,0,"human","None",9,1,"GoldenRod","j","reject",0,949
"609","id0028",1,9,0,1,"AI","None",4,6,"DarkOrchid","f","accept",6,414
"610","id0028",1,10,0,0,"AI","None",6,4,"DarkOrchid","f","accept",4,179
"611","id0028",1,11,0,0,"human","None",6,4,"GoldenRod","f","accept",4,912
"612","id0028",1,12,0,0,"AI","None",8,2,"DarkOrchid","j","reject",0,378
"613","id0028",1,13,0,0,"AI","None",7,3,"DarkOrchid","j","reject",0,247
"614","id0028",1,14,0,0,"human","None",4,6,"GoldenRod","f","accept",6,505
"615","id0028",1,15,0,0,"AI","None",6,4,"DarkOrchid","f","accept",4,628
"616","id0028",1,16,0,0,"AI","None",5,5,"DarkOrchid","f","accept",5,490
"617","id0028",1,17,0,0,"human","None",8,2,"GoldenRod","j","reject",0,501
"618","id0028",1,18,0,0,"human","None",7,3,"GoldenRod","j","reject",0,274
"619","id0028",1,19,0,0,"human","None",6,4,"GoldenRod","f","accept",4,1190
"620","id0028",1,20,0,0,"human","None",5,5,"GoldenRod","f","accept",5,410
"621","id0028",1,21,0,0,"human","None",9,1,"GoldenRod","j","reject",0,548
"622","id0028",1,22,0,0,"human","None",8,2,"GoldenRod","j","reject",0,603
"623","id0028",1,23,0,0,"human","None",4,6,"GoldenRod","f","accept",6,387
"624","id0028",1,24,0,0,"AI","None",5,5,"DarkOrchid","f","accept",5,414
"625","id0029",0,1,1,0,"practice","Practice",3,7,"black","f","accept",7,2094
"626","id0029",0,2,1,0,"practice","Practice",6,4,"black","f","accept",4,720
"627","id0029",1,1,0,0,"AI","None",5,5,"DarkOrchid","f","accept",5,389
"628","id0029",1,2,0,0,"AI","None",7,3,"DarkOrchid","j","reject",0,3871
"629","id0029",1,3,0,0,"human","None",9,1,"GoldenRod","j","reject",0,462
"630","id0029",1,4,0,0,"human","None",4,6,"GoldenRod","f","accept",6,501
"631","id0029",1,5,0,0,"AI","None",6,4,"DarkOrchid","f","accept",4,909
"632","id0029",1,6,0,0,"AI","None",6,4,"DarkOrchid","f","accept",4,413
"633","id0029",1,7,0,0,"human","None",7,3,"GoldenRod","j","reject",0,3214
"634","id0029",1,8,0,0,"AI","None",4,6,"DarkOrchid","f","accept",6,785
"635","id0029",1,9,0,0,"AI","None",5,5,"DarkOrchid","f","accept",5,355
"636","id0029",1,10,0,0,"human","None",6,4,"GoldenRod","f","accept",4,366
"637","id0029",1,11,0,0,"AI","None",7,3,"DarkOrchid","j","reject",0,405
"638","id0029",1,12,0,0,"human","None",7,3,"GoldenRod","j","reject",0,908
"639","id0029",1,13,0,0,"human","None",5,5,"GoldenRod","f","accept",5,486
"640","id0029",1,14,0,0,"AI","None",8,2,"DarkOrchid","j","reject",0,669
"641","id0029",1,15,0,0,"human","None",8,2,"GoldenRod","j","reject",0,350
"642","id0029",1,16,0,0,"human","None",6,4,"GoldenRod","f","accept",4,419
"643","id0029",1,17,0,0,"human","None",5,5,"GoldenRod","f","accept",5,424
"644","id0029",1,18,0,1,"human","None",8,2,"GoldenRod","j","reject",0,600
"645","id0029",1,19,0,0,"AI","None",9,1,"DarkOrchid","j","reject",0,434
"646","id0029",1,20,0,0,"AI","None",4,6,"DarkOrchid","f","accept",6,518
"647","id0029",1,21,0,0,"human","None",4,6,"GoldenRod","f","accept",6,710
"648","id0029",1,22,0,0,"AI","None",9,1,"DarkOrchid","j","reject",0,714
"649","id0029",1,23,0,0,"human","None",9,1,"GoldenRod","j","reject",0,1188
"650","id0029",1,24,0,0,"AI","None",8,2,"DarkOrchid","j","reject",0,832
"651","id0030",0,1,1,0,"practice","Practice",9,1,"black","f","accept",1,3238
"652","id0030",0,2,1,0,"practice","Practice",1,9,"black","f","accept",9,505
"653","id0030",1,1,0,0,"AI","None",6,4,"GoldenRod","f","accept",4,1101
"654","id0030",1,2,0,0,"human","None",6,4,"DarkOrchid","f","accept",4,449
"655","id0030",1,3,0,0,"AI","None",5,5,"GoldenRod","f","accept",5,802
"656","id0030",1,4,0,0,"AI","None",4,6,"GoldenRod","f","accept",6,864
"657","id0030",1,5,0,0,"human","None",9,1,"DarkOrchid","f","accept",1,874
"658","id0030",1,6,0,0,"human","None",9,1,"DarkOrchid","f","accept",1,1013
"659","id0030",1,7,0,0,"human","None",4,6,"DarkOrchid","f","accept",6,626
"660","id0030",1,8,0,0,"AI","None",7,3,"GoldenRod","f","accept",3,856
"661","id0030",1,9,0,0,"human","None",7,3,"DarkOrchid","f","accept",3,769
"662","id0030",1,10,0,0,"human","None",5,5,"DarkOrchid","f","accept",5,430
"663","id0030",1,11,0,0,"AI","None",9,1,"GoldenRod","f","accept",1,531
"664","id0030",1,12,0,0,"human","None",5,5,"DarkOrchid","f","accept",5,484
"665","id0030",1,13,0,0,"AI","None",5,5,"GoldenRod","f","accept",5,482
"666","id0030",1,14,0,0,"AI","None",9,1,"GoldenRod","f","accept",1,3425
"667","id0030",1,15,0,0,"human","None",7,3,"DarkOrchid","f","accept",3,464
"668","id0030",1,16,0,0,"human","None",8,2,"DarkOrchid","f","accept",2,2218
"669","id0030",1,17,0,0,"AI","None",4,6,"GoldenRod","f","accept",6,2729
"670","id0030",1,18,0,0,"AI","None",8,2,"GoldenRod","f","accept",2,473
"671","id0030",1,19,0,1,"AI","None",8,2,"GoldenRod","f","accept",2,1307
"672","id0030",1,20,0,0,"AI","None",6,4,"GoldenRod","f","accept",4,497
"673","id0030",1,21,0,0,"human","None",8,2,"DarkOrchid","f","accept",2,499
"674","id0030",1,22,0,0,"human","None",6,4,"DarkOrchid","f","accept",4,414
"675","id0030",1,23,0,0,"human","None",4,6,"DarkOrchid","f","accept",6,1318
"676","id0030",1,24,0,0,"AI","None",7,3,"GoldenRod","f","accept",3,782
"677","id0031",0,1,1,0,"practice","Practice",0,10,"black","j","reject",0,189
"678","id0031",0,2,1,0,"practice","Practice",5,5,"black","f","accept",5,64
"679","id0031",1,1,0,0,"human","None",8,2,"GoldenRod","f","accept",2,499
"680","id0031",1,2,0,0,"human","None",9,1,"GoldenRod","f","accept",1,102
"681","id0031",1,3,0,0,"AI","None",9,1,"DarkOrchid","f","accept",1,408
"682","id0031",1,4,0,0,"human","None",7,3,"GoldenRod","f","accept",3,31
"683","id0031",1,5,0,0,"AI","None",6,4,"DarkOrchid","f","accept",4,73
"684","id0031",1,6,0,0,"human","None",8,2,"GoldenRod","f","accept",2,329
"685","id0031",1,7,0,0,"AI","None",7,3,"DarkOrchid","f","accept",3,143
"686","id0031",1,8,0,0,"human","None",6,4,"GoldenRod","f","accept",4,197
"687","id0031",1,9,0,0,"AI","None",5,5,"DarkOrchid","f","accept",5,445
"688","id0031",1,10,0,0,"AI","None",7,3,"DarkOrchid","f","accept",3,375
"689","id0031",1,11,0,0,"human","None",9,1,"GoldenRod","f","accept",1,11
"690","id0031",1,12,0,1,"AI","None",4,6,"DarkOrchid","f","accept",6,337
"691","id0031",1,13,0,0,"human","None",4,6,"GoldenRod","f","accept",6,640
"692","id0031",1,14,0,0,"human","None",7,3,"GoldenRod","f","accept",3,100
"693","id0031",1,15,0,0,"AI","None",5,5,"DarkOrchid","f","accept",5,68
"694","id0031",1,16,0,0,"AI","None",6,4,"DarkOrchid","f","accept",4,27
"695","id0031",1,17,0,0,"human","None",6,4,"GoldenRod","f","accept",4,70
"696","id0031",1,18,0,0,"AI","None",8,2,"DarkOrchid","f","accept",2,99
"697","id0031",1,19,0,0,"AI","None",4,6,"DarkOrchid","f","accept",6,433
"698","id0031",1,20,0,0,"human","None",5,5,"GoldenRod","f","accept",5,479
"699","id0031",1,21,0,0,"AI","None",8,2,"DarkOrchid","f","accept",2,319
"700","id0031",1,22,0,0,"human","None",5,5,"GoldenRod","f","accept",5,180
"701","id0031",1,23,0,0,"AI","None",9,1,"DarkOrchid","f","accept",1,211
"702","id0031",1,24,0,0,"human","None",4,6,"GoldenRod","f","accept",6,331
"703","id0032",0,1,1,0,"practice","Practice",4,6,"black","f","accept",6,2006
"704","id0032",0,2,1,0,"practice","Practice",0,10,"black","f","accept",10,1220
"705","id0032",1,1,0,0,"AI","None",6,4,"GoldenRod","j","reject",0,1050
"706","id0032",1,2,0,0,"human","None",9,1,"DarkOrchid","j","reject",0,653
"707","id0032",1,3,0,0,"human","None",9,1,"DarkOrchid","j","reject",0,338
"708","id0032",1,4,0,0,"human","None",4,6,"DarkOrchid","f","accept",6,674
"709","id0032",1,5,0,0,"human","None",6,4,"DarkOrchid","f","accept",4,1376
"710","id0032",1,6,0,0,"AI","None",4,6,"GoldenRod","f","accept",6,594
"711","id0032",1,7,0,0,"AI","None",8,2,"GoldenRod","j","reject",0,774
"712","id0032",1,8,0,0,"human","None",8,2,"DarkOrchid","j","reject",0,893
"713","id0032",1,9,0,0,"human","None",8,2,"DarkOrchid","j","reject",0,804
"714","id0032",1,10,0,0,"AI","None",7,3,"GoldenRod","f","accept",3,481
"715","id0032",1,11,0,0,"human","None",5,5,"DarkOrchid","f","accept",5,823
"716","id0032",1,12,0,0,"human","None",7,3,"DarkOrchid","j","reject",0,776
"717","id0032",1,13,0,0,"AI","None",6,4,"GoldenRod","f","accept",4,834
"718","id0032",1,14,0,0,"AI","None",9,1,"GoldenRod","j","reject",0,920
"719","id0032",1,15,0,0,"AI","None",9,1,"GoldenRod","j","reject",0,746
"720","id0032",1,16,0,0,"human","None",5,5,"DarkOrchid","f","accept",5,93
"721","id0032",1,17,0,1,"AI","None",4,6,"GoldenRod","f","accept",6,875
"722","id0032",1,18,0,0,"AI","None",7,3,"GoldenRod","f","accept",3,907
"723","id0032",1,19,0,0,"human","None",6,4,"DarkOrchid","f","accept",4,872
"724","id0032",1,20,0,0,"AI","None",5,5,"GoldenRod","f","accept",5,808
"725","id0032",1,21,0,0,"human","None",4,6,"DarkOrchid","f","accept",6,480
"726","id0032",1,22,0,0,"AI","None",5,5,"GoldenRod","f","accept",5,886
"727","id0032",1,23,0,0,"human","None",7,3,"DarkOrchid","j","reject",0,832
"728","id0032",1,24,0,0,"AI","None",8,2,"GoldenRod","j","reject",0,954
"729","id0033",0,1,1,0,"practice","Practice",4,6,"black","f","accept",6,1268
"730","id0033",0,2,1,0,"practice","Practice",1,9,"black","j","reject",0,757
"731","id0033",1,1,0,0,"human","None",6,4,"DarkOrchid","f","accept",4,388
"732","id0033",1,2,0,0,"human","None",8,2,"DarkOrchid","j","reject",0,413
"733","id0033",1,3,0,0,"human","None",5,5,"DarkOrchid","f","accept",5,327
"734","id0033",1,4,0,0,"AI","None",9,1,"GoldenRod","j","reject",0,658
"735","id0033",1,5,0,0,"human","None",9,1,"DarkOrchid","j","reject",0,648
"736","id0033",1,6,0,0,"AI","None",5,5,"GoldenRod","f","accept",5,538
"737","id0033",1,7,0,0,"AI","None",5,5,"GoldenRod","f","accept",5,441
"738","id0033",1,8,0,0,"human","None",7,3,"DarkOrchid","f","accept",3,418
"739","id0033",1,9,0,0,"AI","None",6,4,"GoldenRod","f","accept",4,444
"740","id0033",1,10,0,1,"AI","None",6,4,"GoldenRod","f","accept",4,1440
"741","id0033",1,11,0,0,"AI","None",7,3,"GoldenRod","f","accept",3,391
"742","id0033",1,12,0,0,"AI","None",8,2,"GoldenRod","j","reject",0,394
"743","id0033",1,13,0,0,"human","None",9,1,"DarkOrchid","j","reject",0,282
"744","id0033",1,14,0,0,"AI","None",9,1,"GoldenRod","j","reject",0,544
"745","id0033",1,15,0,0,"human","None",5,5,"DarkOrchid","f","accept",5,782
"746","id0033",1,16,0,0,"human","None",8,2,"DarkOrchid","j","reject",0,749
"747","id0033",1,17,0,0,"human","None",4,6,"DarkOrchid","f","accept",6,484
"748","id0033",1,18,0,0,"AI","None",4,6,"GoldenRod","f","accept",6,695
"749","id0033",1,19,0,0,"human","None",4,6,"DarkOrchid","f","accept",6,2018
"750","id0033",1,20,0,0,"human","None",6,4,"DarkOrchid","f","accept",4,986
"751","id0033",1,21,0,0,"AI","None",4,6,"GoldenRod","f","accept",6,830
"752","id0033",1,22,0,0,"human","None",7,3,"DarkOrchid","f","accept",3,586
"753","id0033",1,23,0,0,"AI","None",7,3,"GoldenRod","f","accept",3,405
"754","id0033",1,24,0,0,"AI","None",8,2,"GoldenRod","j","reject",0,984
"755","id0034",0,1,1,0,"practice","Practice",5,5,"black","f","accept",5,508
"756","id0034",0,2,1,0,"practice","Practice",0,10,"black","f","accept",10,859
"757","id0034",1,1,0,0,"human","None",9,1,"GoldenRod","j","reject",0,595
"758","id0034",1,2,0,0,"human","None",6,4,"GoldenRod","f","accept",4,360
"759","id0034",1,3,0,0,"AI","None",4,6,"DarkOrchid","f","accept",6,278
"760","id0034",1,4,0,0,"human","None",6,4,"GoldenRod","f","accept",4,260
"761","id0034",1,5,0,0,"AI","None",9,1,"DarkOrchid","j","reject",0,78
"762","id0034",1,6,0,0,"human","None",4,6,"GoldenRod","f","accept",6,380
"763","id0034",1,7,0,0,"AI","None",4,6,"DarkOrchid","f","accept",6,260
"764","id0034",1,8,0,0,"AI","None",9,1,"DarkOrchid","j","reject",0,366
"765","id0034",1,9,0,0,"AI","None",7,3,"DarkOrchid","f","accept",3,320
"766","id0034",1,10,0,0,"human","None",7,3,"GoldenRod","f","accept",3,259
"767","id0034",1,11,0,0,"AI","None",6,4,"DarkOrchid","f","accept",4,260
"768","id0034",1,12,0,1,"AI","None",5,5,"DarkOrchid","f","accept",5,382
"769","id0034",1,13,0,0,"human","None",5,5,"GoldenRod","f","accept",5,77
"770","id0034",1,14,0,0,"AI","None",7,3,"DarkOrchid","f","accept",3,237
"771","id0034",1,15,0,0,"human","None",7,3,"GoldenRod","f","accept",3,161
"772","id0034",1,16,0,0,"AI","None",6,4,"DarkOrchid","f","accept",4,221
"773","id0034",1,17,0,0,"human","None",8,2,"GoldenRod","j","reject",0,322
"774","id0034",1,18,0,0,"human","None",5,5,"GoldenRod","f","accept",5,185
"775","id0034",1,19,0,0,"human","None",4,6,"GoldenRod","f","accept",6,245
"776","id0034",1,20,0,0,"human","None",9,1,"GoldenRod","j","reject",0,485
"777","id0034",1,21,0,0,"AI","None",8,2,"DarkOrchid","j","reject",0,162
"778","id0034",1,22,0,0,"AI","None",8,2,"DarkOrchid","j","reject",0,264
"779","id0034",1,23,0,0,"AI","None",5,5,"DarkOrchid","f","accept",5,277
"780","id0034",1,24,0,0,"human","None",8,2,"GoldenRod","j","reject",0,246
"781","id0036",0,1,1,0,"practice","Practice",4,6,"black","f","accept",6,188
"782","id0036",0,2,1,0,"practice","Practice",5,5,"black","f","accept",5,348
"783","id0036",1,1,0,0,"human","None",5,5,"GoldenRod","f","accept",5,443
"784","id0036",1,2,0,0,"AI","None",7,3,"DarkOrchid","f","accept",3,1417
"785","id0036",1,3,0,0,"AI","None",6,4,"DarkOrchid","f","accept",4,543
"786","id0036",1,4,0,0,"AI","None",7,3,"DarkOrchid","f","accept",3,1370
"787","id0036",1,5,0,0,"human","None",8,2,"GoldenRod","f","accept",2,2844
"788","id0036",1,6,0,0,"human","None",4,6,"GoldenRod","f","accept",6,623
"789","id0036",1,7,0,0,"AI","None",5,5,"DarkOrchid","f","accept",5,338
"790","id0036",1,8,0,0,"human","None",7,3,"GoldenRod","f","accept",3,350
"791","id0036",1,9,0,0,"AI","None",9,1,"DarkOrchid","f","accept",1,621
"792","id0036",1,10,0,0,"human","None",7,3,"GoldenRod","f","accept",3,392
"793","id0036",1,11,0,0,"human","None",4,6,"GoldenRod","f","accept",6,702
"794","id0036",1,12,0,1,"human","None",6,4,"GoldenRod","f","accept",4,674
"795","id0036",1,13,0,0,"AI","None",6,4,"DarkOrchid","f","accept",4,1158
"796","id0036",1,14,0,0,"human","None",5,5,"GoldenRod","f","accept",5,405
"797","id0036",1,15,0,0,"AI","None",4,6,"DarkOrchid","f","accept",6,308
"798","id0036",1,16,0,0,"AI","None",8,2,"DarkOrchid","f","accept",2,470
"799","id0036",1,17,0,0,"human","None",9,1,"GoldenRod","f","accept",1,443
"800","id0036",1,18,0,0,"human","None",8,2,"GoldenRod","f","accept",2,1023
"801","id0036",1,19,0,0,"human","None",6,4,"GoldenRod","f","accept",4,880
"802","id0036",1,20,0,0,"human","None",9,1,"GoldenRod","f","accept",1,379
"803","id0036",1,21,0,0,"AI","None",5,5,"DarkOrchid","f","accept",5,409
"804","id0036",1,22,0,0,"AI","None",9,1,"DarkOrchid","f","accept",1,719
"805","id0036",1,23,0,0,"AI","None",4,6,"DarkOrchid","f","accept",6,324
"806","id0036",1,24,0,0,"AI","None",8,2,"DarkOrchid","f","accept",2,731
"807","id0040",0,1,1,0,"practice","Practice",4,6,"black","f","accept",6,433
"808","id0040",0,2,1,0,"practice","Practice",4,6,"black","f","accept",6,341
"809","id0040",1,1,0,0,"human","None",9,1,"GoldenRod","j","reject",0,409
"810","id0040",1,2,0,0,"AI","None",6,4,"DarkOrchid","f","accept",4,589
"811","id0040",1,3,0,0,"AI","None",9,1,"DarkOrchid","j","reject",0,247
"812","id0040",1,4,0,0,"human","None",4,6,"GoldenRod","f","accept",6,757
"813","id0040",1,5,0,0,"human","None",5,5,"GoldenRod","f","accept",5,527
"814","id0040",1,6,0,0,"human","None",6,4,"GoldenRod","j","reject",0,1180
"815","id0040",1,7,0,0,"AI","None",8,2,"DarkOrchid","j","reject",0,672
"816","id0040",1,8,0,0,"AI","None",5,5,"DarkOrchid","f","accept",5,587
"817","id0040",1,9,0,0,"human","None",8,2,"GoldenRod","j","reject",0,971
"818","id0040",1,10,0,0,"AI","None",4,6,"DarkOrchid","j","reject",0,3043
"819","id0040",1,11,0,0,"AI","None",5,5,"DarkOrchid","f","accept",5,4078
"820","id0040",1,12,0,0,"AI","None",6,4,"DarkOrchid","f","accept",4,988
"821","id0040",1,13,0,1,"AI","None",4,6,"DarkOrchid","f","accept",6,453
"822","id0040",1,14,0,0,"human","None",6,4,"GoldenRod","f","accept",4,393
"823","id0040",1,15,0,0,"AI","None",7,3,"DarkOrchid","f","accept",3,520
"824","id0040",1,16,0,0,"human","None",9,1,"GoldenRod","j","reject",0,325
"825","id0040",1,17,0,0,"human","None",5,5,"GoldenRod","f","accept",5,525
"826","id0040",1,18,0,0,"human","None",7,3,"GoldenRod","j","reject",0,469
"827","id0040",1,19,0,0,"human","None",4,6,"GoldenRod","f","accept",6,728
"828","id0040",1,20,0,0,"AI","None",9,1,"DarkOrchid","j","reject",0,423
"829","id0040",1,21,0,0,"AI","None",7,3,"DarkOrchid","j","reject",0,460
"830","id0040",1,22,0,0,"human","None",7,3,"GoldenRod","j","reject",0,738
"831","id0040",1,23,0,0,"human","None",8,2,"GoldenRod","j","reject",0,576
"832","id0040",1,24,0,0,"AI","None",8,2,"DarkOrchid","j","reject",0,674
"833","id0043",0,1,1,0,"practice","Practice",7,3,"black","f","accept",3,1353
"834","id0043",0,2,1,0,"practice","Practice",9,1,"black","j","reject",0,766
"835","id0043",1,1,0,0,"AI","None",6,4,"DarkOrchid","f","accept",4,1379
"836","id0043",1,2,0,0,"human","None",9,1,"GoldenRod","f","accept",1,1609
"837","id0043",1,3,0,0,"human","None",9,1,"GoldenRod","f","accept",1,801
"838","id0043",1,4,0,1,"AI","None",6,4,"DarkOrchid","f","accept",4,545
"839","id0043",1,5,0,0,"human","None",8,2,"GoldenRod","f","accept",2,870
"840","id0043",1,6,0,0,"AI","None",5,5,"DarkOrchid","f","accept",5,942
"841","id0043",1,7,0,0,"AI","None",5,5,"DarkOrchid","f","accept",5,874
"842","id0043",1,8,0,0,"human","None",8,2,"GoldenRod","f","accept",2,910
"843","id0043",1,9,0,0,"AI","None",4,6,"DarkOrchid","f","accept",6,1123
"844","id0043",1,10,0,0,"AI","None",4,6,"DarkOrchid","f","accept",6,862
"845","id0043",1,11,0,0,"human","None",7,3,"GoldenRod","f","accept",3,656
"846","id0043",1,12,0,0,"human","None",6,4,"GoldenRod","f","accept",4,1003
"847","id0043",1,13,0,0,"human","None",4,6,"GoldenRod","f","accept",6,669
"848","id0043",1,14,0,0,"AI","None",9,1,"DarkOrchid","f","accept",1,1033
"849","id0043",1,15,0,0,"human","None",5,5,"GoldenRod","f","accept",5,1256
"850","id0043",1,16,0,0,"AI","None",9,1,"DarkOrchid","f","accept",1,1079
"851","id0043",1,17,0,0,"human","None",4,6,"GoldenRod","f","accept",6,763
"852","id0043",1,18,0,0,"AI","None",8,2,"DarkOrchid","f","accept",2,550
"853","id0043",1,19,0,0,"human","None",7,3,"GoldenRod","f","accept",3,662
"854","id0043",1,20,0,0,"AI","None",8,2,"DarkOrchid","f","accept",2,552
"855","id0043",1,21,0,0,"human","None",5,5,"GoldenRod","f","accept",5,711
"856","id0043",1,22,0,0,"AI","None",7,3,"DarkOrchid","f","accept",3,621
"857","id0043",1,23,0,0,"AI","None",7,3,"DarkOrchid","f","accept",3,517
"858","id0043",1,24,0,0,"human","None",6,4,"GoldenRod","f","accept",4,776
"859","id0044",0,1,1,0,"practice","Practice",7,3,"black","j","reject",0,639
"860","id0044",0,2,1,0,"practice","Practice",9,1,"black","j","reject",0,304
"861","id0044",1,1,0,0,"human","None",8,2,"GoldenRod","j","reject",0,349
"862","id0044",1,2,0,0,"AI","None",5,5,"DarkOrchid","f","accept",5,294
"863","id0044",1,3,0,0,"human","None",4,6,"GoldenRod","f","accept",6,312
"864","id0044",1,4,0,0,"AI","None",4,6,"DarkOrchid","f","accept",6,316
"865","id0044",1,5,0,1,"AI","None",9,1,"DarkOrchid","j","reject",0,312
"866","id0044",1,6,0,0,"human","None",8,2,"GoldenRod","j","reject",0,366
"867","id0044",1,7,0,0,"human","None",5,5,"GoldenRod","f","accept",5,284
"868","id0044",1,8,0,0,"AI","None",8,2,"DarkOrchid","j","reject",0,336
"869","id0044",1,9,0,0,"human","None",7,3,"GoldenRod","f","accept",3,879
"870","id0044",1,10,0,0,"AI","None",4,6,"DarkOrchid","f","accept",6,303
"871","id0044",1,11,0,0,"AI","None",5,5,"DarkOrchid","f","accept",5,334
"872","id0044",1,12,0,0,"human","None",9,1,"GoldenRod","j","reject",0,322
"873","id0044",1,13,0,0,"AI","None",8,2,"DarkOrchid","j","reject",0,353
"874","id0044",1,14,0,0,"human","None",7,3,"GoldenRod","f","accept",3,385
"875","id0044",1,15,0,0,"AI","None",7,3,"DarkOrchid","f","accept",3,938
"876","id0044",1,16,0,0,"AI","None",6,4,"DarkOrchid","f","accept",4,324
"877","id0044",1,17,0,0,"human","None",6,4,"GoldenRod","f","accept",4,336
"878","id0044",1,18,0,0,"human","None",6,4,"GoldenRod","f","accept",4,385
"879","id0044",1,19,0,0,"AI","None",6,4,"DarkOrchid","f","accept",4,401
"880","id0044",1,20,0,0,"human","None",5,5,"GoldenRod","f","accept",5,502
"881","id0044",1,21,0,0,"human","None",9,1,"GoldenRod","j","reject",0,253
"882","id0044",1,22,0,0,"AI","None",9,1,"DarkOrchid","j","reject",0,362
"883","id0044",1,23,0,0,"human","None",4,6,"GoldenRod","f","accept",6,301
"884","id0044",1,24,0,0,"AI","None",7,3,"DarkOrchid","f","accept",3,1380
"885","id0045",0,1,1,0,"practice","Practice",0,10,"black","f","accept",10,362
"886","id0045",0,2,1,0,"practice","Practice",4,6,"black","f","accept",6,286
"887","id0045",1,1,0,0,"human","None",6,4,"DarkOrchid","j","reject",0,381
"888","id0045",1,2,0,0,"AI","None",7,3,"GoldenRod","j","reject",0,1005
"889","id0045",1,3,0,0,"human","None",7,3,"DarkOrchid","j","reject",0,371
"890","id0045",1,4,0,0,"AI","None",5,5,"GoldenRod","f","accept",5,278
"891","id0045",1,5,0,0,"human","None",7,3,"DarkOrchid","f","accept",3,226
"892","id0045",1,6,0,0,"AI","None",9,1,"GoldenRod","j","reject",0,387
"893","id0045",1,7,0,0,"AI","None",7,3,"GoldenRod","f","accept",3,283
"894","id0045",1,8,0,0,"AI","None",4,6,"GoldenRod","f","accept",6,242
"895","id0045",1,9,0,0,"human","None",6,4,"DarkOrchid","f","accept",4,112
"896","id0045",1,10,0,0,"AI","None",6,4,"GoldenRod","f","accept",4,283
"897","id0045",1,11,0,0,"human","None",5,5,"DarkOrchid","f","accept",5,236
"898","id0045",1,12,0,0,"human","None",8,2,"DarkOrchid","j","reject",0,266
"899","id0045",1,13,0,0,"human","None",9,1,"DarkOrchid","j","reject",0,314
"900","id0045",1,14,0,0,"AI","None",8,2,"GoldenRod","j","reject",0,597
"901","id0045",1,15,0,0,"human","None",4,6,"DarkOrchid","f","accept",6,232
"902","id0045",1,16,0,0,"AI","None",6,4,"GoldenRod","f","accept",4,54
"903","id0045",1,17,0,0,"human","None",5,5,"DarkOrchid","f","accept",5,489
"904","id0045",1,18,0,1,"AI","None",5,5,"GoldenRod","f","accept",5,68
"905","id0045",1,19,0,0,"AI","None",4,6,"GoldenRod","f","accept",6,1349
"906","id0045",1,20,0,0,"human","None",9,1,"DarkOrchid","j","reject",0,584
"907","id0045",1,21,0,0,"human","None",4,6,"DarkOrchid","f","accept",6,576
"908","id0045",1,22,0,0,"AI","None",8,2,"GoldenRod","j","reject",0,461
"909","id0045",1,23,0,0,"AI","None",9,1,"GoldenRod","j","reject",0,497
"910","id0045",1,24,0,0,"human","None",8,2,"DarkOrchid","j","reject",0,242
"911","id0046",0,1,1,0,"practice","Practice",6,4,"black","f","accept",4,2673
"912","id0046",0,2,1,0,"practice","Practice",3,7,"black","j","reject",0,2419
"913","id0046",1,1,0,0,"AI","None",9,1,"DarkOrchid","j","reject",0,451
"914","id0046",1,2,0,0,"human","None",6,4,"GoldenRod","f","accept",4,8778
"915","id0046",1,3,0,0,"AI","None",5,5,"DarkOrchid","f","accept",5,2831
"916","id0046",1,4,0,0,"AI","None",4,6,"DarkOrchid","f","accept",6,3398
"917","id0046",1,5,0,0,"AI","None",8,2,"DarkOrchid","j","reject",0,2520
"918","id0046",1,6,0,0,"human","None",7,3,"GoldenRod","j","reject",0,2394
"919","id0046",1,7,0,0,"human","None",9,1,"GoldenRod","j","reject",0,2554
"920","id0046",1,8,0,0,"human","None",4,6,"GoldenRod","f","accept",6,2857
"921","id0046",1,9,0,0,"human","None",4,6,"GoldenRod","f","accept",6,3856
"922","id0046",1,10,0,0,"AI","None",8,2,"DarkOrchid","j","reject",0,2042
"923","id0046",1,11,0,0,"human","None",7,3,"GoldenRod","j","reject",0,1755
"924","id0046",1,12,0,0,"AI","None",7,3,"DarkOrchid","j","reject",0,2029
"925","id0046",1,13,0,0,"AI","None",7,3,"DarkOrchid","j","reject",0,1796
"926","id0046",1,14,0,0,"AI","None",5,5,"DarkOrchid","f","accept",5,2354
"927","id0046",1,15,0,0,"AI","None",9,1,"DarkOrchid","j","reject",0,1891
"928","id0046",1,16,0,0,"human","None",5,5,"GoldenRod","f","accept",5,1810
"929","id0046",1,17,0,0,"human","None",6,4,"GoldenRod","f","accept",4,3023
"930","id0046",1,18,0,0,"AI","None",6,4,"DarkOrchid","f","accept",4,3435
"931","id0046",1,19,0,0,"human","None",9,1,"GoldenRod","j","reject",0,2196
"932","id0046",1,20,0,0,"human","None",8,2,"GoldenRod","j","reject",0,3295
"933","id0046",1,21,0,0,"human","None",5,5,"GoldenRod","f","accept",5,2764
"934","id0046",1,22,0,1,"human","None",8,2,"GoldenRod","j","reject",0,2139
"935","id0046",1,23,0,0,"AI","None",4,6,"DarkOrchid","f","accept",6,3136
"936","id0046",1,24,0,0,"AI","None",6,4,"DarkOrchid","f","accept",4,1927
"937","id0047",0,1,1,0,"practice","Practice",7,3,"black","j","reject",0,446
"938","id0047",0,2,1,0,"practice","Practice",7,3,"black","f","accept",3,558
"939","id0047",1,1,0,0,"AI","None",8,2,"DarkOrchid","f","accept",2,573
"940","id0047",1,2,0,0,"human","None",6,4,"GoldenRod","f","accept",4,511
"941","id0047",1,3,0,0,"human","None",9,1,"GoldenRod","f","accept",1,305
"942","id0047",1,4,0,0,"human","None",7,3,"GoldenRod","f","accept",3,990
"943","id0047",1,5,0,0,"human","None",5,5,"GoldenRod","f","accept",5,401
"944","id0047",1,6,0,0,"AI","None",7,3,"DarkOrchid","f","accept",3,421
"945","id0047",1,7,0,0,"human","None",7,3,"GoldenRod","f","accept",3,414
"946","id0047",1,8,0,0,"AI","None",6,4,"DarkOrchid","f","accept",4,1213
"947","id0047",1,9,0,0,"AI","None",4,6,"DarkOrchid","f","accept",6,467
"948","id0047",1,10,0,0,"human","None",6,4,"GoldenRod","f","accept",4,571
"949","id0047",1,11,0,0,"human","None",4,6,"GoldenRod","f","accept",6,434
"950","id0047",1,12,0,0,"AI","None",5,5,"DarkOrchid","f","accept",5,3150
"951","id0047",1,13,0,0,"AI","None",6,4,"DarkOrchid","f","accept",4,381
"952","id0047",1,14,0,0,"AI","None",9,1,"DarkOrchid","f","accept",1,400
"953","id0047",1,15,0,0,"AI","None",7,3,"DarkOrchid","f","accept",3,67
"954","id0047",1,16,0,0,"AI","None",9,1,"DarkOrchid","f","accept",1,622
"955","id0047",1,17,0,0,"human","None",4,6,"GoldenRod","f","accept",6,343
"956","id0047",1,18,0,0,"human","None",9,1,"GoldenRod","f","accept",1,351
"957","id0047",1,19,0,0,"human","None",8,2,"GoldenRod","f","accept",2,920
"958","id0047",1,20,0,0,"AI","None",5,5,"DarkOrchid","f","accept",5,424
"959","id0047",1,21,0,1,"AI","None",8,2,"DarkOrchid","f","accept",2,406
"960","id0047",1,22,0,0,"human","None",8,2,"GoldenRod","f","accept",2,1727
"961","id0047",1,23,0,0,"AI","None",4,6,"DarkOrchid","f","accept",6,313
"962","id0047",1,24,0,0,"human","None",5,5,"GoldenRod","f","accept",5,383
"963","id0048",0,1,1,0,"practice","Practice",0,10,"black","f","accept",10,338
"964","id0048",0,2,1,0,"practice","Practice",1,9,"black","f","accept",9,387
"965","id0048",1,1,0,0,"human","None",7,3,"DarkOrchid","f","accept",3,315
"966","id0048",1,2,0,0,"human","None",5,5,"DarkOrchid","f","accept",5,323
"967","id0048",1,3,0,0,"AI","None",5,5,"GoldenRod","f","accept",5,406
"968","id0048",1,4,0,0,"human","None",6,4,"DarkOrchid","f","accept",4,477
"969","id0048",1,5,0,0,"human","None",5,5,"DarkOrchid","f","accept",5,475
"970","id0048",1,6,0,1,"human","None",9,1,"DarkOrchid","f","accept",1,342
"971","id0048",1,7,0,0,"AI","None",8,2,"GoldenRod","f","accept",2,460
"972","id0048",1,8,0,0,"AI","None",9,1,"GoldenRod","f","accept",1,675
"973","id0048",1,9,0,0,"human","None",4,6,"DarkOrchid","f","accept",6,588
"974","id0048",1,10,0,0,"human","None",9,1,"DarkOrchid","f","accept",1,458
"975","id0048",1,11,0,0,"human","None",8,2,"DarkOrchid","f","accept",2,436
"976","id0048",1,12,0,0,"human","None",7,3,"DarkOrchid","f","accept",3,362
"977","id0048",1,13,0,0,"AI","None",6,4,"GoldenRod","f","accept",4,607
"978","id0048",1,14,0,0,"AI","None",4,6,"GoldenRod","f","accept",6,440
"979","id0048",1,15,0,0,"AI","None",9,1,"GoldenRod","f","accept",1,403
"980","id0048",1,16,0,0,"human","None",4,6,"DarkOrchid","f","accept",6,323
"981","id0048",1,17,0,0,"AI","None",7,3,"GoldenRod","f","accept",3,258
"982","id0048",1,18,0,0,"human","None",8,2,"DarkOrchid","f","accept",2,412
"983","id0048",1,19,0,0,"AI","None",8,2,"GoldenRod","f","accept",2,291
"984","id0048",1,20,0,0,"AI","None",4,6,"GoldenRod","f","accept",6,323
"985","id0048",1,21,0,0,"AI","None",5,5,"GoldenRod","f","accept",5,282
"986","id0048",1,22,0,0,"human","None",6,4,"DarkOrchid","f","accept",4,295
"987","id0048",1,23,0,0,"AI","None",6,4,"GoldenRod","f","accept",4,366
"988","id0048",1,24,0,0,"AI","None",7,3,"GoldenRod","f","accept",3,461
"989","id0049",0,1,1,0,"practice","Practice",4,6,"black","f","accept",6,2605
"990","id0049",0,2,1,0,"practice","Practice",4,6,"black","f","accept",6,1253
"991","id0049",1,1,0,0,"human","None",4,6,"DarkOrchid","f","accept",6,1605
"992","id0049",1,2,0,0,"human","None",6,4,"DarkOrchid","f","accept",4,1989
"993","id0049",1,3,0,0,"AI","None",9,1,"GoldenRod","j","reject",0,727
"994","id0049",1,4,0,0,"AI","None",6,4,"GoldenRod","f","accept",4,994
"995","id0049",1,5,0,0,"human","None",4,6,"DarkOrchid","f","accept",6,1609
"996","id0049",1,6,0,0,"human","None",9,1,"DarkOrchid","j","reject",0,1001
"997","id0049",1,7,0,0,"AI","None",5,5,"GoldenRod","f","accept",5,1009
"998","id0049",1,8,0,0,"AI","None",6,4,"GoldenRod","f","accept",4,1232
"999","id0049",1,9,0,0,"human","None",7,3,"DarkOrchid","j","reject",0,1835
"1000","id0049",1,10,0,0,"human","None",8,2,"DarkOrchid","j","reject",0,326
"1001","id0049",1,11,0,0,"human","None",8,2,"DarkOrchid","j","reject",0,730
"1002","id0049",1,12,0,0,"human","None",5,5,"DarkOrchid","f","accept",5,943
"1003","id0049",1,13,0,0,"human","None",7,3,"DarkOrchid","f","accept",3,2510
"1004","id0049",1,14,0,0,"AI","None",4,6,"GoldenRod","f","accept",6,967
"1005","id0049",1,15,0,0,"AI","None",8,2,"GoldenRod","j","reject",0,1300
"1006","id0049",1,16,0,0,"human","None",6,4,"DarkOrchid","f","accept",4,3667
"1007","id0049",1,17,0,0,"AI","None",8,2,"GoldenRod","j","reject",0,1195
"1008","id0049",1,18,0,0,"human","None",5,5,"DarkOrchid","f","accept",5,1997
"1009","id0049",1,19,0,0,"AI","None",4,6,"GoldenRod","f","accept",6,4694
"1010","id0049",1,20,0,0,"AI","None",5,5,"GoldenRod","f","accept",5,1439
"1011","id0049",1,21,0,0,"AI","None",7,3,"GoldenRod","j","reject",0,1243
"1012","id0049",1,22,0,0,"AI","None",7,3,"GoldenRod","j","reject",0,1576
"1013","id0049",1,23,0,1,"human","None",9,1,"DarkOrchid","j","reject",0,1201
"1014","id0049",1,24,0,0,"AI","None",9,1,"GoldenRod","j","reject",0,1095
"1015","id0050",0,1,1,0,"practice","Practice",8,2,"black","j","reject",0,719
"1016","id0050",0,2,1,0,"practice","Practice",0,10,"black","f","accept",10,552
"1017","id0050",1,1,0,0,"human","None",4,6,"DarkOrchid","f","accept",6,401
"1018","id0050",1,2,0,0,"AI","None",7,3,"GoldenRod","f","accept",3,1045
"1019","id0050",1,3,0,0,"AI","None",6,4,"GoldenRod","f","accept",4,366
"1020","id0050",1,4,0,0,"AI","None",9,1,"GoldenRod","j","reject",0,490
"1021","id0050",1,5,0,0,"AI","None",7,3,"GoldenRod","f","accept",3,414
"1022","id0050",1,6,0,0,"human","None",8,2,"DarkOrchid","j","reject",0,300
"1023","id0050",1,7,0,0,"human","None",7,3,"DarkOrchid","f","accept",3,397
"1024","id0050",1,8,0,0,"human","None",8,2,"DarkOrchid","j","reject",0,321
"1025","id0050",1,9,0,0,"human","None",5,5,"DarkOrchid","f","accept",5,305
"1026","id0050",1,10,0,0,"human","None",9,1,"DarkOrchid","j","reject",0,348
"1027","id0050",1,11,0,0,"human","None",5,5,"DarkOrchid","f","accept",5,305
"1028","id0050",1,12,0,0,"human","None",7,3,"DarkOrchid","f","accept",3,375
"1029","id0050",1,13,0,0,"human","None",6,4,"DarkOrchid","f","accept",4,288
"1030","id0050",1,14,0,0,"AI","None",5,5,"GoldenRod","f","accept",5,372
"1031","id0050",1,15,0,0,"AI","None",8,2,"GoldenRod","j","reject",0,275
"1032","id0050",1,16,0,0,"human","None",6,4,"DarkOrchid","f","accept",4,353
"1033","id0050",1,17,0,0,"AI","None",6,4,"GoldenRod","f","accept",4,300
"1034","id0050",1,18,0,0,"AI","None",9,1,"GoldenRod","j","reject",0,385
"1035","id0050",1,19,0,0,"human","None",9,1,"DarkOrchid","j","reject",0,365
"1036","id0050",1,20,0,1,"AI","None",8,2,"GoldenRod","j","reject",0,316
"1037","id0050",1,21,0,0,"AI","None",4,6,"GoldenRod","f","accept",6,479
"1038","id0050",1,22,0,0,"AI","None",4,6,"GoldenRod","f","accept",6,268
"1039","id0050",1,23,0,0,"human","None",4,6,"DarkOrchid","f","accept",6,145
"1040","id0050",1,24,0,0,"AI","None",5,5,"GoldenRod","f","accept",5,461
"1041","id0051",0,1,1,0,"practice","Practice",9,1,"black","j","reject",0,551
"1042","id0051",0,2,1,0,"practice","Practice",4,6,"black","f","accept",6,6
"1043","id0051",1,1,0,0,"AI","None",6,4,"DarkOrchid","j","reject",0,2106
"1044","id0051",1,2,0,0,"human","None",6,4,"GoldenRod","j","reject",0,748
"1045","id0051",1,3,0,0,"human","None",8,2,"GoldenRod","j","reject",0,332
"1046","id0051",1,4,0,0,"human","None",6,4,"GoldenRod","j","reject",0,324
"1047","id0051",1,5,0,0,"human","None",9,1,"GoldenRod","j","reject",0,298
"1048","id0051",1,6,0,0,"AI","None",8,2,"DarkOrchid","j","reject",0,356
"1049","id0051",1,7,0,0,"human","None",9,1,"GoldenRod","j","reject",0,342
"1050","id0051",1,8,0,0,"AI","None",5,5,"DarkOrchid","f","accept",5,352
"1051","id0051",1,9,0,0,"AI","None",9,1,"DarkOrchid","j","reject",0,2359
"1052","id0051",1,10,0,0,"AI","None",4,6,"DarkOrchid","f","accept",6,279
"1053","id0051",1,11,0,0,"human","None",8,2,"GoldenRod","j","reject",0,411
"1054","id0051",1,12,0,0,"human","None",4,6,"GoldenRod","f","accept",6,348
"1055","id0051",1,13,0,0,"human","None",7,3,"GoldenRod","j","reject",0,880
"1056","id0051",1,14,0,0,"AI","None",7,3,"DarkOrchid","j","reject",0,411
"1057","id0051",1,15,0,0,"AI","None",6,4,"DarkOrchid","j","reject",0,1940
"1058","id0051",1,16,0,0,"AI","None",8,2,"DarkOrchid","j","reject",0,424
"1059","id0051",1,17,0,0,"human","None",5,5,"GoldenRod","f","accept",5,353
"1060","id0051",1,18,0,0,"AI","None",4,6,"DarkOrchid","f","accept",6,338
"1061","id0051",1,19,0,1,"human","None",5,5,"GoldenRod","f","accept",5,309
"1062","id0051",1,20,0,0,"AI","None",5,5,"DarkOrchid","f","accept",5,995
"1063","id0051",1,21,0,0,"AI","None",7,3,"DarkOrchid","j","reject",0,1457
"1064","id0051",1,22,0,0,"human","None",4,6,"GoldenRod","f","accept",6,96
"1065","id0051",1,23,0,0,"AI","None",9,1,"DarkOrchid","j","reject",0,939
"1066","id0051",1,24,0,0,"human","None",7,3,"GoldenRod","j","reject",0,4248
"1067","id0053",0,1,1,0,"practice","Practice",3,7,"black","f","accept",7,3522
"1068","id0053",0,2,1,0,"practice","Practice",9,1,"black","f","accept",1,1856
"1069","id0053",1,1,0,0,"AI","None",4,6,"DarkOrchid","f","accept",6,515
"1070","id0053",1,2,0,0,"AI","None",5,5,"DarkOrchid","f","accept",5,497
"1071","id0053",1,3,0,0,"AI","None",5,5,"DarkOrchid","f","accept",5,606
"1072","id0053",1,4,0,0,"human","None",6,4,"GoldenRod","f","accept",4,420
"1073","id0053",1,5,0,0,"AI","None",7,3,"DarkOrchid","f","accept",3,596
"1074","id0053",1,6,0,0,"AI","None",4,6,"DarkOrchid","f","accept",6,1091
"1075","id0053",1,7,0,0,"AI","None",6,4,"DarkOrchid","f","accept",4,664
"1076","id0053",1,8,0,0,"human","None",7,3,"GoldenRod","f","accept",3,559
"1077","id0053",1,9,0,1,"human","None",7,3,"GoldenRod","f","accept",3,520
"1078","id0053",1,10,0,0,"AI","None",8,2,"DarkOrchid","f","accept",2,660
"1079","id0053",1,11,0,0,"human","None",9,1,"GoldenRod","f","accept",1,795
"1080","id0053",1,12,0,0,"human","None",8,2,"GoldenRod","f","accept",2,602
"1081","id0053",1,13,0,0,"AI","None",9,1,"DarkOrchid","f","accept",1,503
"1082","id0053",1,14,0,0,"human","None",4,6,"GoldenRod","f","accept",6,714
"1083","id0053",1,15,0,0,"AI","None",9,1,"DarkOrchid","f","accept",1,706
"1084","id0053",1,16,0,0,"AI","None",8,2,"DarkOrchid","f","accept",2,536
"1085","id0053",1,17,0,0,"human","None",4,6,"GoldenRod","f","accept",6,727
"1086","id0053",1,18,0,0,"human","None",5,5,"GoldenRod","f","accept",5,424
"1087","id0053",1,19,0,0,"human","None",6,4,"GoldenRod","f","accept",4,672
"1088","id0053",1,20,0,0,"human","None",9,1,"GoldenRod","f","accept",1,699
"1089","id0053",1,21,0,0,"human","None",5,5,"GoldenRod","f","accept",5,712
"1090","id0053",1,22,0,0,"AI","None",7,3,"DarkOrchid","f","accept",3,707
"1091","id0053",1,23,0,0,"AI","None",6,4,"DarkOrchid","f","accept",4,808
"1092","id0053",1,24,0,0,"human","None",8,2,"GoldenRod","f","accept",2,582
"1093","id0054",0,1,1,0,"practice","Practice",9,1,"black","j","reject",0,540
"1094","id0054",0,2,1,0,"practice","Practice",8,2,"black","j","reject",0,374
"1095","id0054",1,1,0,0,"AI","None",5,5,"GoldenRod","f","accept",5,504
"1096","id0054",1,2,0,0,"AI","None",9,1,"GoldenRod","j","reject",0,516
"1097","id0054",1,3,0,0,"human","None",5,5,"DarkOrchid","f","accept",5,491
"1098","id0054",1,4,0,0,"AI","None",9,1,"GoldenRod","j","reject",0,353
"1099","id0054",1,5,0,0,"human","None",9,1,"DarkOrchid","j","reject",0,281
"1100","id0054",1,6,0,0,"AI","None",8,2,"GoldenRod","j","reject",0,3003
"1101","id0054",1,7,0,0,"AI","None",5,5,"GoldenRod","f","accept",5,369
"1102","id0054",1,8,0,0,"AI","None",7,3,"GoldenRod","f","accept",3,472
"1103","id0054",1,9,0,0,"human","None",8,2,"DarkOrchid","f","accept",2,740
"1104","id0054",1,10,0,0,"AI","None",6,4,"GoldenRod","f","accept",4,287
"1105","id0054",1,11,0,0,"AI","None",8,2,"GoldenRod","j","reject",0,286
"1106","id0054",1,12,0,0,"AI","None",4,6,"GoldenRod","f","accept",6,309
"1107","id0054",1,13,0,1,"AI","None",6,4,"GoldenRod","f","accept",4,330
"1108","id0054",1,14,0,0,"human","None",7,3,"DarkOrchid","f","accept",3,428
"1109","id0054",1,15,0,0,"human","None",8,2,"DarkOrchid","j","reject",0,471
"1110","id0054",1,16,0,0,"human","None",7,3,"DarkOrchid","f","accept",3,402
"1111","id0054",1,17,0,0,"AI","None",4,6,"GoldenRod","f","accept",6,309
"1112","id0054",1,18,0,0,"human","None",4,6,"DarkOrchid","f","accept",6,310
"1113","id0054",1,19,0,0,"human","None",4,6,"DarkOrchid","f","accept",6,384
"1114","id0054",1,20,0,0,"human","None",6,4,"DarkOrchid","f","accept",4,464
"1115","id0054",1,21,0,0,"human","None",9,1,"DarkOrchid","j","reject",0,322
"1116","id0054",1,22,0,0,"human","None",5,5,"DarkOrchid","f","accept",5,288
"1117","id0054",1,23,0,0,"human","None",6,4,"DarkOrchid","f","accept",4,292
"1118","id0054",1,24,0,0,"AI","None",7,3,"GoldenRod","f","accept",3,330
"1119","id0056",0,1,1,0,"practice","Practice",4,6,"black","f","accept",6,751
"1120","id0056",0,2,1,0,"practice","Practice",7,3,"black","j","reject",0,789
"1121","id0056",1,1,0,0,"AI","None",5,5,"DarkOrchid","f","accept",5,454
"1122","id0056",1,2,0,0,"human","None",7,3,"GoldenRod","j","reject",0,695
"1123","id0056",1,3,0,0,"AI","None",8,2,"DarkOrchid","j","reject",0,680
"1124","id0056",1,4,0,0,"human","None",9,1,"GoldenRod","j","reject",0,2
"1125","id0056",1,5,0,0,"human","None",6,4,"GoldenRod","f","accept",4,879
"1126","id0056",1,6,0,0,"human","None",8,2,"GoldenRod","j","reject",0,100
"1127","id0056",1,7,0,0,"AI","None",6,4,"DarkOrchid","f","accept",4,555
"1128","id0056",1,8,0,0,"AI","None",5,5,"DarkOrchid","f","accept",5,687
"1129","id0056",1,9,0,0,"human","None",6,4,"GoldenRod","f","accept",4,792
"1130","id0056",1,10,0,0,"AI","None",7,3,"DarkOrchid","j","reject",0,522
"1131","id0056",1,11,0,0,"human","None",5,5,"GoldenRod","f","accept",5,453
"1132","id0056",1,12,0,0,"human","None",4,6,"GoldenRod","f","accept",6,965
"1133","id0056",1,13,0,0,"AI","None",4,6,"DarkOrchid","f","accept",6,961
"1134","id0056",1,14,0,0,"human","None",5,5,"GoldenRod","f","accept",5,1044
"1135","id0056",1,15,0,0,"AI","None",6,4,"DarkOrchid","f","accept",4,1823
"1136","id0056",1,16,0,0,"human","None",9,1,"GoldenRod","j","reject",0,756
"1137","id0056",1,17,0,0,"human","None",4,6,"GoldenRod","f","accept",6,457
"1138","id0056",1,18,0,0,"AI","None",9,1,"DarkOrchid","j","reject",0,603
"1139","id0056",1,19,0,0,"AI","None",7,3,"DarkOrchid","j","reject",0,509
"1140","id0056",1,20,0,1,"AI","None",8,2,"DarkOrchid","j","reject",0,1066
"1141","id0056",1,21,0,0,"AI","None",9,1,"DarkOrchid","j","reject",0,602
"1142","id0056",1,22,0,0,"AI","None",4,6,"DarkOrchid","f","accept",6,893
"1143","id0056",1,23,0,0,"human","None",7,3,"GoldenRod","j","reject",0,933
"1144","id0056",1,24,0,0,"human","None",8,2,"GoldenRod","j","reject",0,444
"1145","id0057",0,1,1,0,"practice","Practice",5,5,"black","f","accept",5,737
"1146","id0057",0,2,1,0,"practice","Practice",7,3,"black","f","accept",3,451
"1147","id0057",1,1,0,0,"AI","None",6,4,"DarkOrchid","f","accept",4,464
"1148","id0057",1,2,0,0,"human","None",4,6,"GoldenRod","f","accept",6,333
"1149","id0057",1,3,0,0,"AI","None",7,3,"DarkOrchid","f","accept",3,463
"1150","id0057",1,4,0,0,"human","None",6,4,"GoldenRod","f","accept",4,440
"1151","id0057",1,5,0,0,"AI","None",8,2,"DarkOrchid","f","accept",2,476
"1152","id0057",1,6,0,0,"human","None",8,2,"GoldenRod","f","accept",2,695
"1153","id0057",1,7,0,0,"AI","None",8,2,"DarkOrchid","f","accept",2,690
"1154","id0057",1,8,0,0,"AI","None",4,6,"DarkOrchid","f","accept",6,476
"1155","id0057",1,9,0,0,"AI","None",5,5,"DarkOrchid","f","accept",5,366
"1156","id0057",1,10,0,0,"human","None",6,4,"GoldenRod","f","accept",4,420
"1157","id0057",1,11,0,0,"human","None",5,5,"GoldenRod","f","accept",5,329
"1158","id0057",1,12,0,0,"AI","None",4,6,"DarkOrchid","f","accept",6,377
"1159","id0057",1,13,0,0,"human","None",8,2,"GoldenRod","f","accept",2,464
"1160","id0057",1,14,0,0,"AI","None",9,1,"DarkOrchid","f","accept",1,497
"1161","id0057",1,15,0,0,"AI","None",9,1,"DarkOrchid","f","accept",1,395
"1162","id0057",1,16,0,0,"AI","None",7,3,"DarkOrchid","f","accept",3,357
"1163","id0057",1,17,0,0,"AI","None",6,4,"DarkOrchid","f","accept",4,553
"1164","id0057",1,18,0,0,"human","None",9,1,"GoldenRod","f","accept",1,723
"1165","id0057",1,19,0,1,"human","None",7,3,"GoldenRod","f","accept",3,352
"1166","id0057",1,20,0,0,"human","None",7,3,"GoldenRod","f","accept",3,420
"1167","id0057",1,21,0,0,"human","None",9,1,"GoldenRod","f","accept",1,408
"1168","id0057",1,22,0,0,"AI","None",5,5,"DarkOrchid","f","accept",5,428
"1169","id0057",1,23,0,0,"human","None",5,5,"GoldenRod","f","accept",5,419
"1170","id0057",1,24,0,0,"human","None",4,6,"GoldenRod","f","accept",6,569
"1171","id0058",0,1,1,0,"practice","Practice",5,5,"black","f","accept",5,637
"1172","id0058",0,2,1,0,"practice","Practice",3,7,"black","f","accept",7,474
"1173","id0058",1,1,0,1,"human","None",7,3,"GoldenRod","f","accept",3,1063
"1174","id0058",1,2,0,0,"AI","None",8,2,"DarkOrchid","f","accept",2,525
"1175","id0058",1,3,0,0,"human","None",8,2,"GoldenRod","f","accept",2,429
"1176","id0058",1,4,0,0,"AI","None",7,3,"DarkOrchid","f","accept",3,562
"1177","id0058",1,5,0,0,"AI","None",7,3,"DarkOrchid","f","accept",3,574
"1178","id0058",1,6,0,0,"human","None",4,6,"GoldenRod","f","accept",6,408
"1179","id0058",1,7,0,0,"human","None",9,1,"GoldenRod","j","reject",0,698
"1180","id0058",1,8,0,0,"AI","None",4,6,"DarkOrchid","f","accept",6,398
"1181","id0058",1,9,0,0,"human","None",6,4,"GoldenRod","f","accept",4,374
"1182","id0058",1,10,0,0,"human","None",7,3,"GoldenRod","f","accept",3,444
"1183","id0058",1,11,0,0,"AI","None",8,2,"DarkOrchid","f","accept",2,322
"1184","id0058",1,12,0,0,"human","None",4,6,"GoldenRod","f","accept",6,379
"1185","id0058",1,13,0,0,"AI","None",5,5,"DarkOrchid","f","accept",5,445
"1186","id0058",1,14,0,0,"human","None",8,2,"GoldenRod","f","accept",2,391
"1187","id0058",1,15,0,0,"human","None",5,5,"GoldenRod","f","accept",5,361
"1188","id0058",1,16,0,0,"AI","None",9,1,"DarkOrchid","j","reject",0,413
"1189","id0058",1,17,0,0,"human","None",9,1,"GoldenRod","j","reject",0,552
"1190","id0058",1,18,0,0,"AI","None",4,6,"DarkOrchid","f","accept",6,334
"1191","id0058",1,19,0,0,"AI","None",5,5,"DarkOrchid","f","accept",5,337
"1192","id0058",1,20,0,0,"human","None",6,4,"GoldenRod","f","accept",4,388
"1193","id0058",1,21,0,0,"AI","None",6,4,"DarkOrchid","f","accept",4,319
"1194","id0058",1,22,0,0,"human","None",5,5,"GoldenRod","f","accept",5,441
"1195","id0058",1,23,0,0,"AI","None",6,4,"DarkOrchid","f","accept",4,451
"1196","id0058",1,24,0,0,"AI","None",9,1,"DarkOrchid","j","reject",0,445
"1197","id0059",0,1,1,0,"practice","Practice",6,4,"black","j","reject",0,959
"1198","id0059",0,2,1,0,"practice","Practice",3,7,"black","f","accept",7,834
"1199","id0059",1,1,0,0,"human","None",9,1,"GoldenRod","j","reject",0,480
"1200","id0059",1,2,0,0,"AI","None",5,5,"DarkOrchid","f","accept",5,329
"1201","id0059",1,3,0,0,"AI","None",9,1,"DarkOrchid","j","reject",0,204
"1202","id0059",1,4,0,0,"AI","None",6,4,"DarkOrchid","f","accept",4,366
"1203","id0059",1,5,0,0,"human","None",6,4,"GoldenRod","f","accept",4,339
"1204","id0059",1,6,0,0,"human","None",5,5,"GoldenRod","f","accept",5,568
"1205","id0059",1,7,0,0,"AI","None",5,5,"DarkOrchid","f","accept",5,276
"1206","id0059",1,8,0,0,"human","None",8,2,"GoldenRod","j","reject",0,1203
"1207","id0059",1,9,0,0,"AI","None",7,3,"DarkOrchid","j","reject",0,464
"1208","id0059",1,10,0,0,"human","None",7,3,"GoldenRod","j","reject",0,250
"1209","id0059",1,11,0,0,"AI","None",6,4,"DarkOrchid","f","accept",4,404
"1210","id0059",1,12,0,0,"human","None",8,2,"GoldenRod","j","reject",0,490
"1211","id0059",1,13,0,0,"AI","None",4,6,"DarkOrchid","f","accept",6,393
"1212","id0059",1,14,0,0,"AI","None",7,3,"DarkOrchid","j","reject",0,536
"1213","id0059",1,15,0,0,"human","None",6,4,"GoldenRod","f","accept",4,566
"1214","id0059",1,16,0,0,"human","None",4,6,"GoldenRod","f","accept",6,402
"1215","id0059",1,17,0,0,"AI","None",4,6,"DarkOrchid","f","accept",6,509
"1216","id0059",1,18,0,0,"human","None",4,6,"GoldenRod","f","accept",6,405
"1217","id0059",1,19,0,0,"human","None",9,1,"GoldenRod","j","reject",0,439
"1218","id0059",1,20,0,0,"AI","None",8,2,"DarkOrchid","j","reject",0,446
"1219","id0059",1,21,0,0,"human","None",7,3,"GoldenRod","j","reject",0,29
"1220","id0059",1,22,0,0,"AI","None",9,1,"DarkOrchid","j","reject",0,612
"1221","id0059",1,23,0,0,"AI","None",8,2,"DarkOrchid","j","reject",0,207
"1222","id0059",1,24,0,1,"human","None",5,5,"GoldenRod","f","accept",5,651
"1223","id0060",0,1,1,0,"practice","Practice",1,9,"black","f","accept",9,484
"1224","id0060",0,2,1,0,"practice","Practice",5,5,"black","f","accept",5,15
"1225","id0060",1,1,0,0,"AI","None",9,1,"GoldenRod","f","accept",1,429
"1226","id0060",1,2,0,0,"AI","None",8,2,"GoldenRod","f","accept",2,389
"1227","id0060",1,3,0,0,"AI","None",4,6,"GoldenRod","f","accept",6,832
"1228","id0060",1,4,0,0,"human","None",6,4,"DarkOrchid","f","accept",4,341
"1229","id0060",1,5,0,0,"human","None",5,5,"DarkOrchid","f","accept",5,449
"1230","id0060",1,6,0,0,"human","None",4,6,"DarkOrchid","f","accept",6,641
"1231","id0060",1,7,0,0,"human","None",6,4,"DarkOrchid","f","accept",4,1025
"1232","id0060",1,8,0,0,"AI","None",6,4,"GoldenRod","f","accept",4,483
"1233","id0060",1,9,0,1,"human","None",9,1,"DarkOrchid","f","accept",1,375
"1234","id0060",1,10,0,0,"human","None",8,2,"DarkOrchid","f","accept",2,391
"1235","id0060",1,11,0,0,"human","None",5,5,"DarkOrchid","f","accept",5,421
"1236","id0060",1,12,0,0,"human","None",4,6,"DarkOrchid","f","accept",6,796
"1237","id0060",1,13,0,0,"AI","None",7,3,"GoldenRod","f","accept",3,572
"1238","id0060",1,14,0,0,"AI","None",6,4,"GoldenRod","f","accept",4,434
"1239","id0060",1,15,0,0,"AI","None",7,3,"GoldenRod","f","accept",3,553
"1240","id0060",1,16,0,0,"AI","None",8,2,"GoldenRod","f","accept",2,411
"1241","id0060",1,17,0,0,"AI","None",5,5,"GoldenRod","f","accept",5,84
"1242","id0060",1,18,0,0,"AI","None",5,5,"GoldenRod","f","accept",5,609
"1243","id0060",1,19,0,0,"AI","None",4,6,"GoldenRod","f","accept",6,687
"1244","id0060",1,20,0,0,"human","None",7,3,"DarkOrchid","f","accept",3,711
"1245","id0060",1,21,0,0,"human","None",9,1,"DarkOrchid","f","accept",1,368
"1246","id0060",1,22,0,0,"human","None",8,2,"DarkOrchid","f","accept",2,298
"1247","id0060",1,23,0,0,"AI","None",9,1,"GoldenRod","f","accept",1,412
"1248","id0060",1,24,0,0,"human","None",7,3,"DarkOrchid","f","accept",3,446
"1249","id0062",0,1,1,0,"practice","Practice",5,5,"black","f","accept",5,643
"1250","id0062",0,2,1,0,"practice","Practice",8,2,"black","j","reject",0,381
"1251","id0062",1,1,0,0,"human","None",4,6,"DarkOrchid","f","accept",6,377
"1252","id0062",1,2,0,0,"human","None",8,2,"DarkOrchid","j","reject",0,436
"1253","id0062",1,3,0,0,"human","None",6,4,"DarkOrchid","j","reject",0,347
"1254","id0062",1,4,0,0,"human","None",5,5,"DarkOrchid","f","accept",5,482
"1255","id0062",1,5,0,0,"AI","None",4,6,"GoldenRod","f","accept",6,860
"1256","id0062",1,6,0,0,"AI","None",9,1,"GoldenRod","j","reject",0,332
"1257","id0062",1,7,0,0,"AI","None",6,4,"GoldenRod","j","reject",0,390
"1258","id0062",1,8,0,0,"AI","None",7,3,"GoldenRod","j","reject",0,414
"1259","id0062",1,9,0,0,"human","None",4,6,"DarkOrchid","f","accept",6,346
"1260","id0062",1,10,0,0,"AI","None",5,5,"GoldenRod","f","accept",5,376
"1261","id0062",1,11,0,0,"human","None",6,4,"DarkOrchid","j","reject",0,331
"1262","id0062",1,12,0,0,"AI","None",8,2,"GoldenRod","j","reject",0,402
"1263","id0062",1,13,0,0,"human","None",7,3,"DarkOrchid","j","reject",0,408
"1264","id0062",1,14,0,1,"AI","None",7,3,"GoldenRod","j","reject",0,365
"1265","id0062",1,15,0,0,"AI","None",5,5,"GoldenRod","f","accept",5,743
"1266","id0062",1,16,0,0,"human","None",8,2,"DarkOrchid","j","reject",0,444
"1267","id0062",1,17,0,0,"AI","None",9,1,"GoldenRod","j","reject",0,384
"1268","id0062",1,18,0,0,"human","None",7,3,"DarkOrchid","j","reject",0,334
"1269","id0062",1,19,0,0,"AI","None",8,2,"GoldenRod","j","reject",0,439
"1270","id0062",1,20,0,0,"human","None",5,5,"DarkOrchid","f","accept",5,63
"1271","id0062",1,21,0,0,"human","None",9,1,"DarkOrchid","j","reject",0,399
"1272","id0062",1,22,0,0,"AI","None",6,4,"GoldenRod","j","reject",0,343
"1273","id0062",1,23,0,0,"AI","None",4,6,"GoldenRod","f","accept",6,509
"1274","id0062",1,24,0,0,"human","None",9,1,"DarkOrchid","j","reject",0,378
"1275","id0066",0,1,1,0,"practice","Practice",6,4,"black","f","accept",4,1829
"1276","id0066",0,2,1,0,"practice","Practice",2,8,"black","f","accept",8,6088
"1277","id0066",1,1,0,0,"human","None",5,5,"DarkOrchid","f","accept",5,440
"1278","id0066",1,2,0,0,"human","None",4,6,"DarkOrchid","f","accept",6,1466
"1279","id0066",1,3,0,0,"AI","None",5,5,"GoldenRod","f","accept",5,4773
"1280","id0066",1,4,0,0,"human","None",5,5,"DarkOrchid","f","accept",5,384
"1281","id0066",1,5,0,0,"human","None",9,1,"DarkOrchid","j","reject",0,2844
"1282","id0066",1,6,0,0,"AI","None",9,1,"GoldenRod","j","reject",0,469
"1283","id0066",1,7,0,0,"AI","None",7,3,"GoldenRod","j","reject",0,507
"1284","id0066",1,8,0,0,"AI","None",4,6,"GoldenRod","f","accept",6,407
"1285","id0066",1,9,0,0,"AI","None",7,3,"GoldenRod","j","reject",0,369
"1286","id0066",1,10,0,0,"AI","None",6,4,"GoldenRod","f","accept",4,467
"1287","id0066",1,11,0,0,"human","None",6,4,"DarkOrchid","f","accept",4,366
"1288","id0066",1,12,0,0,"human","None",4,6,"DarkOrchid","f","accept",6,379
"1289","id0066",1,13,0,0,"human","None",8,2,"DarkOrchid","j","reject",0,376
"1290","id0066",1,14,0,0,"human","None",9,1,"DarkOrchid","j","reject",0,654
"1291","id0066",1,15,0,1,"human","None",8,2,"DarkOrchid","j","reject",0,411
"1292","id0066",1,16,0,0,"AI","None",4,6,"GoldenRod","f","accept",6,300
"1293","id0066",1,17,0,0,"human","None",7,3,"DarkOrchid","j","reject",0,2190
"1294","id0066",1,18,0,0,"AI","None",6,4,"GoldenRod","f","accept",4,405
"1295","id0066",1,19,0,0,"human","None",6,4,"DarkOrchid","f","accept",4,361
"1296","id0066",1,20,0,0,"AI","None",8,2,"GoldenRod","j","reject",0,403
"1297","id0066",1,21,0,0,"AI","None",5,5,"GoldenRod","f","accept",5,947
"1298","id0066",1,22,0,0,"human","None",7,3,"DarkOrchid","j","reject",0,2585
"1299","id0066",1,23,0,0,"AI","None",8,2,"GoldenRod","j","reject",0,289
"1300","id0066",1,24,0,0,"AI","None",9,1,"GoldenRod","j","reject",0,377
"1301","id0067",0,1,1,0,"practice","Practice",2,8,"black","j","reject",0,1428
"1302","id0067",0,2,1,0,"practice","Practice",9,1,"black","j","reject",0,1588
"1303","id0067",1,1,0,0,"human","None",9,1,"DarkOrchid","f","accept",1,1097
"1304","id0067",1,2,0,0,"AI","None",7,3,"GoldenRod","f","accept",3,515
"1305","id0067",1,3,0,0,"human","None",7,3,"DarkOrchid","f","accept",3,855
"1306","id0067",1,4,0,0,"AI","None",4,6,"GoldenRod","f","accept",6,470
"1307","id0067",1,5,0,0,"AI","None",8,2,"GoldenRod","f","accept",2,1498
"1308","id0067",1,6,0,0,"human","None",4,6,"DarkOrchid","f","accept",6,835
"1309","id0067",1,7,0,0,"human","None",8,2,"DarkOrchid","f","accept",2,352
"1310","id0067",1,8,0,0,"human","None",5,5,"DarkOrchid","f","accept",5,878
"1311","id0067",1,9,0,0,"AI","None",7,3,"GoldenRod","f","accept",3,539
"1312","id0067",1,10,0,0,"AI","None",9,1,"GoldenRod","f","accept",1,654
"1313","id0067",1,11,0,0,"AI","None",8,2,"GoldenRod","f","accept",2,356
"1314","id0067",1,12,0,0,"AI","None",6,4,"GoldenRod","f","accept",4,291
"1315","id0067",1,13,0,0,"AI","None",6,4,"GoldenRod","f","accept",4,1075
"1316","id0067",1,14,0,0,"human","None",6,4,"DarkOrchid","f","accept",4,391
"1317","id0067",1,15,0,0,"AI","None",9,1,"GoldenRod","f","accept",1,851
"1318","id0067",1,16,0,0,"human","None",6,4,"DarkOrchid","f","accept",4,347
"1319","id0067",1,17,0,1,"AI","None",5,5,"GoldenRod","f","accept",5,714
"1320","id0067",1,18,0,0,"human","None",8,2,"DarkOrchid","f","accept",2,553
"1321","id0067",1,19,0,0,"AI","None",5,5,"GoldenRod","f","accept",5,445
"1322","id0067",1,20,0,0,"human","None",4,6,"DarkOrchid","f","accept",6,833
"1323","id0067",1,21,0,0,"human","None",5,5,"DarkOrchid","f","accept",5,896
"1324","id0067",1,22,0,0,"human","None",7,3,"DarkOrchid","f","accept",3,635
"1325","id0067",1,23,0,0,"AI","None",4,6,"GoldenRod","f","accept",6,750
"1326","id0067",1,24,0,0,"human","None",9,1,"DarkOrchid","f","accept",1,730
"1327","id0068",0,1,1,0,"practice","Practice",6,4,"black","j","reject",0,2233
"1328","id0068",0,2,1,0,"practice","Practice",5,5,"black","f","accept",5,950
"1329","id0068",1,1,0,0,"AI","None",7,3,"DarkOrchid","j","reject",0,411
"1330","id0068",1,2,0,0,"human","None",7,3,"GoldenRod","j","reject",0,741
"1331","id0068",1,3,0,0,"human","None",8,2,"GoldenRod","j","reject",0,481
"1332","id0068",1,4,0,0,"human","None",5,5,"GoldenRod","f","accept",5,550
"1333","id0068",1,5,0,0,"human","None",6,4,"GoldenRod","j","reject",0,1401
"1334","id0068",1,6,0,0,"AI","None",6,4,"DarkOrchid","j","reject",0,467
"1335","id0068",1,7,0,0,"AI","None",4,6,"DarkOrchid","j","reject",0,1233
"1336","id0068",1,8,0,0,"AI","None",5,5,"DarkOrchid","f","accept",5,579
"1337","id0068",1,9,0,0,"human","None",8,2,"GoldenRod","j","reject",0,4635
"1338","id0068",1,10,0,0,"AI","None",6,4,"DarkOrchid","j","reject",0,713
"1339","id0068",1,11,0,0,"human","None",9,1,"GoldenRod","j","reject",0,991
"1340","id0068",1,12,0,0,"human","None",9,1,"GoldenRod","j","reject",0,1266
"1341","id0068",1,13,0,1,"AI","None",8,2,"DarkOrchid","j","reject",0,1223
"1342","id0068",1,14,0,0,"human","None",6,4,"GoldenRod","j","reject",0,917
"1343","id0068",1,15,0,0,"human","None",4,6,"GoldenRod","f","accept",6,865
"1344","id0068",1,16,0,0,"human","None",7,3,"GoldenRod","j","reject",0,747
"1345","id0068",1,17,0,0,"AI","None",9,1,"DarkOrchid","j","reject",0,937
"1346","id0068",1,18,0,0,"AI","None",9,1,"DarkOrchid","j","reject",0,895
"1347","id0068",1,19,0,0,"AI","None",4,6,"DarkOrchid","f","accept",6,607
"1348","id0068",1,20,0,0,"human","None",5,5,"GoldenRod","f","accept",5,983
"1349","id0068",1,21,0,0,"AI","None",7,3,"DarkOrchid","j","reject",0,2873
"1350","id0068",1,22,0,0,"AI","None",8,2,"DarkOrchid","j","reject",0,965
"1351","id0068",1,23,0,0,"AI","None",5,5,"DarkOrchid","f","accept",5,790
"1352","id0068",1,24,0,0,"human","None",4,6,"GoldenRod","j","reject",0,1092
"1353","id0069",0,1,1,0,"practice","Practice",0,10,"black","j","reject",0,2281
"1354","id0069",0,2,1,0,"practice","Practice",7,3,"black","f","accept",3,287
"1355","id0069",1,1,0,0,"human","None",8,2,"DarkOrchid","f","accept",2,558
"1356","id0069",1,2,0,0,"AI","None",6,4,"GoldenRod","f","accept",4,342
"1357","id0069",1,3,0,0,"human","None",7,3,"DarkOrchid","f","accept",3,271
"1358","id0069",1,4,0,0,"human","None",9,1,"DarkOrchid","f","accept",1,282
"1359","id0069",1,5,0,1,"AI","None",5,5,"GoldenRod","f","accept",5,296
"1360","id0069",1,6,0,0,"AI","None",4,6,"GoldenRod","j","reject",0,979
"1361","id0069",1,7,0,0,"human","None",6,4,"DarkOrchid","f","accept",4,297
"1362","id0069",1,8,0,0,"human","None",6,4,"DarkOrchid","f","accept",4,291
"1363","id0069",1,9,0,0,"human","None",5,5,"DarkOrchid","f","accept",5,303
