"","id","block","trial_number","practice_trial","random_trial","opponent","training_condition","proposer_offer","receiver_offer","color","response_key","response","outcome","reaction_time"
"1","id0001",0,1,1,0,"practice","Practice",0,10,"black","f","accept",10,2786
"2","id0001",0,2,1,0,"practice","Practice",3,7,"black","f","accept",7,176
"3","id0001",1,1,0,0,"human","Proposer",6,4,"Orange","f","accept",4,1089
"4","id0001",1,2,0,0,"human","Proposer",9,1,"Orange","j","reject",0,165
"5","id0001",1,3,0,0,"AI","Proposer",4,6,"CornflowerBlue","j","reject",0,5943
"6","id0001",1,4,0,0,"human","Proposer",7,3,"Orange","j","reject",0,406
"7","id0001",1,5,0,0,"human","Proposer",5,5,"Orange","f","accept",5,431
"8","id0001",1,6,0,0,"human","Proposer",9,1,"Orange","j","reject",0,395
"9","id0001",1,7,0,0,"human","Proposer",4,6,"Orange","f","accept",6,855
"10","id0001",1,8,0,0,"human","Proposer",8,2,"Orange","j","reject",0,110
"11","id0001",1,9,0,0,"AI","Proposer",9,1,"CornflowerBlue","j","reject",0,72
"12","id0001",1,10,0,0,"human","Proposer",4,6,"Orange","f","accept",6,1264
"13","id0001",1,11,0,0,"AI","Proposer",7,3,"CornflowerBlue","j","reject",0,7726
"14","id0001",1,12,0,1,"human","Proposer",6,4,"Orange","j","reject",0,351
"15","id0001",1,13,0,0,"AI","Proposer",8,2,"CornflowerBlue","j","reject",0,1310
"16","id0001",1,14,0,0,"AI","Proposer",6,4,"CornflowerBlue","f","accept",4,3797
"17","id0001",1,15,0,0,"AI","Proposer",5,5,"CornflowerBlue","f","accept",5,1332
"18","id0001",1,16,0,0,"AI","Proposer",5,5,"CornflowerBlue","f","accept",5,93312
"19","id0001",1,17,0,0,"AI","Proposer",7,3,"CornflowerBlue","j","reject",0,490
"20","id0001",1,18,0,0,"AI","Proposer",8,2,"CornflowerBlue","j","reject",0,423
"21","id0001",1,19,0,0,"human","Proposer",8,2,"Orange","j","reject",0,303
"22","id0001",1,20,0,0,"AI","Proposer",9,1,"CornflowerBlue","j","reject",0,5
"23","id0001",1,21,0,0,"human","Proposer",5,5,"Orange","f","accept",5,1678
"24","id0001",1,22,0,0,"AI","Proposer",4,6,"CornflowerBlue","f","accept",6,1954
"25","id0001",1,23,0,0,"human","Proposer",7,3,"Orange","j","reject",0,989
"26","id0001",1,24,0,0,"AI","Proposer",6,4,"CornflowerBlue","f","accept",4,1186
"27","id0002",0,1,1,0,"practice","Practice",7,3,"black","f","accept",3,596
"28","id0002",0,2,1,0,"practice","Practice",7,3,"black","f","accept",3,2636
"29","id0002",1,1,0,0,"human","None",9,1,"CornflowerBlue","j","reject",0,4759
"30","id0002",1,2,0,0,"AI","None",8,2,"Orange","f","accept",2,3459
"31","id0002",1,3,0,0,"human","None",4,6,"CornflowerBlue","f","accept",6,303
"32","id0002",1,4,0,0,"AI","None",6,4,"Orange","f","accept",4,304
"33","id0002",1,5,0,0,"human","None",7,3,"CornflowerBlue","f","accept",3,609
"34","id0002",1,6,0,0,"human","None",5,5,"CornflowerBlue","f","accept",5,624
"35","id0002",1,7,0,0,"human","None",6,4,"CornflowerBlue","f","accept",4,732
"36","id0002",1,8,0,0,"AI","None",6,4,"Orange","f","accept",4,528
"37","id0002",1,9,0,0,"human","None",7,3,"CornflowerBlue","f","accept",3,855
"38","id0002",1,10,0,0,"human","None",5,5,"CornflowerBlue","f","accept",5,491
"39","id0002",1,11,0,0,"human","None",6,4,"CornflowerBlue","f","accept",4,590
"40","id0002",1,12,0,0,"AI","None",9,1,"Orange","j","reject",0,176
"41","id0002",1,13,0,0,"AI","None",5,5,"Orange","f","accept",5,375
"42","id0002",1,14,0,0,"AI","None",7,3,"Orange","f","accept",3,406
"43","id0002",1,15,0,0,"human","None",4,6,"CornflowerBlue","f","accept",6,3
"44","id0002",1,16,0,0,"human","None",9,1,"CornflowerBlue","j","reject",0,656
"45","id0002",1,17,0,0,"AI","None",9,1,"Orange","j","reject",0,12
"46","id0002",1,18,0,0,"human","None",8,2,"CornflowerBlue","j","reject",0,1142
"47","id0002",1,19,0,1,"AI","None",7,3,"Orange","f","accept",3,475
"48","id0002",1,20,0,0,"AI","None",8,2,"Orange","j","reject",0,3757
"49","id0002",1,21,0,0,"AI","None",5,5,"Orange","f","accept",5,419
"50","id0002",1,22,0,0,"human","None",8,2,"CornflowerBlue","j","reject",0,188
"51","id0002",1,23,0,0,"AI","None",4,6,"Orange","f","accept",6,191
"52","id0002",1,24,0,0,"AI","None",4,6,"Orange","f","accept",6,454
"53","id0003",0,1,1,0,"practice","Practice",9,1,"black","j","reject",0,1820
"54","id0003",0,2,1,0,"practice","Practice",6,4,"black","f","accept",4,723
"55","id0003",1,1,0,0,"human","Proposer",4,6,"CornflowerBlue","f","accept",6,1196
"56","id0003",1,2,0,0,"human","Proposer",8,2,"CornflowerBlue","j","reject",0,1682
"57","id0003",1,3,0,0,"human","Proposer",7,3,"CornflowerBlue","f","accept",3,531
"58","id0003",1,4,0,0,"human","Proposer",6,4,"CornflowerBlue","f","accept",4,620
"59","id0003",1,5,0,0,"AI","Proposer",7,3,"Orange","f","accept",3,880
"60","id0003",1,6,0,0,"AI","Proposer",5,5,"Orange","f","accept",5,412
"61","id0003",1,7,0,0,"AI","Proposer",4,6,"Orange","f","accept",6,552
"62","id0003",1,8,0,0,"AI","Proposer",6,4,"Orange","f","accept",4,397
"63","id0003",1,9,0,1,"human","Proposer",7,3,"CornflowerBlue","j","reject",0,378
"64","id0003",1,10,0,0,"human","Proposer",9,1,"CornflowerBlue","j","reject",0,377
"65","id0003",1,11,0,0,"human","Proposer",9,1,"CornflowerBlue","j","reject",0,357
"66","id0003",1,12,0,0,"human","Proposer",8,2,"CornflowerBlue","j","reject",0,335
"67","id0003",1,13,0,0,"human","Proposer",4,6,"CornflowerBlue","f","accept",6,328
"68","id0003",1,14,0,0,"AI","Proposer",6,4,"Orange","f","accept",4,490
"69","id0003",1,15,0,0,"AI","Proposer",8,2,"Orange","j","reject",0,343
"70","id0003",1,16,0,0,"AI","Proposer",7,3,"Orange","j","reject",0,391
"71","id0003",1,17,0,0,"human","Proposer",5,5,"CornflowerBlue","f","accept",5,307
"72","id0003",1,18,0,0,"AI","Proposer",9,1,"Orange","j","reject",0,363
"73","id0003",1,19,0,0,"human","Proposer",5,5,"CornflowerBlue","f","accept",5,313
"74","id0003",1,20,0,0,"AI","Proposer",8,2,"Orange","j","reject",0,330
"75","id0003",1,21,0,0,"AI","Proposer",4,6,"Orange","f","accept",6,340
"76","id0003",1,22,0,0,"AI","Proposer",5,5,"Orange","f","accept",5,410
"77","id0003",1,23,0,0,"AI","Proposer",9,1,"Orange","j","reject",0,439
"78","id0003",1,24,0,0,"human","Proposer",6,4,"CornflowerBlue","f","accept",4,574
"79","id0004",0,1,1,0,"practice","Practice",9,1,"black","f","accept",1,11
"80","id0004",0,2,1,0,"practice","Practice",1,9,"black","f","accept",9,262
"81","id0004",1,1,0,0,"AI","None",6,4,"CornflowerBlue","f","accept",4,652
"82","id0004",1,2,0,0,"AI","None",4,6,"CornflowerBlue","f","accept",6,290
"83","id0004",1,3,0,0,"human","None",8,2,"Orange","j","reject",0,2007
"84","id0004",1,4,0,0,"human","None",7,3,"Orange","f","accept",3,1696
"85","id0004",1,5,0,0,"human","None",6,4,"Orange","f","accept",4,439
"86","id0004",1,6,0,0,"human","None",6,4,"Orange","f","accept",4,1089
"87","id0004",1,7,0,0,"human","None",7,3,"Orange","f","accept",3,1172
"88","id0004",1,8,0,0,"human","None",9,1,"Orange","j","reject",0,708
"89","id0004",1,9,0,0,"AI","None",9,1,"CornflowerBlue","j","reject",0,589
"90","id0004",1,10,0,0,"human","None",8,2,"Orange","f","accept",2,2683
"91","id0004",1,11,0,0,"AI","None",7,3,"CornflowerBlue","f","accept",3,445
"92","id0004",1,12,0,0,"human","None",5,5,"Orange","f","accept",5,369
"93","id0004",1,13,0,1,"human","None",4,6,"Orange","f","accept",6,622
"94","id0004",1,14,0,0,"AI","None",5,5,"CornflowerBlue","f","accept",5,693
"95","id0004",1,15,0,0,"AI","None",7,3,"CornflowerBlue","f","accept",3,548
"96","id0004",1,16,0,0,"human","None",9,1,"Orange","j","reject",0,597
"97","id0004",1,17,0,0,"AI","None",6,4,"CornflowerBlue","f","accept",4,324
"98","id0004",1,18,0,0,"AI","None",9,1,"CornflowerBlue","j","reject",0,579
"99","id0004",1,19,0,0,"AI","None",8,2,"CornflowerBlue","j","reject",0,705
"100","id0004",1,20,0,0,"AI","None",5,5,"CornflowerBlue","f","accept",5,613
"101","id0004",1,21,0,0,"AI","None",8,2,"CornflowerBlue","j","reject",0,860
"102","id0004",1,22,0,0,"human","None",5,5,"Orange","f","accept",5,708
"103","id0004",1,23,0,0,"AI","None",4,6,"CornflowerBlue","f","accept",6,572
"104","id0004",1,24,0,0,"human","None",4,6,"Orange","f","accept",6,589
"105","id0005",0,1,1,0,"practice","Practice",4,6,"black","f","accept",6,5413
"106","id0005",0,2,1,0,"practice","Practice",1,9,"black","f","accept",9,1139
"107","id0005",1,1,0,0,"human","None",8,2,"CornflowerBlue","j","reject",0,470
"108","id0005",1,2,0,0,"human","None",4,6,"CornflowerBlue","f","accept",6,920
"109","id0005",1,3,0,0,"AI","None",9,1,"Orange","j","reject",0,497
"110","id0005",1,4,0,0,"AI","None",5,5,"Orange","f","accept",5,402
"111","id0005",1,5,0,1,"AI","None",7,3,"Orange","j","reject",0,111
"112","id0005",1,6,0,0,"human","None",8,2,"CornflowerBlue","j","reject",0,689
"113","id0005",1,7,0,0,"AI","None",6,4,"Orange","f","accept",4,1831
"114","id0005",1,8,0,0,"human","None",7,3,"CornflowerBlue","j","reject",0,617
"115","id0005",1,9,0,0,"AI","None",5,5,"Orange","f","accept",5,552
"116","id0005",1,10,0,0,"AI","None",4,6,"Orange","f","accept",6,437
"117","id0005",1,11,0,0,"AI","None",4,6,"Orange","f","accept",6,596
"118","id0005",1,12,0,0,"AI","None",6,4,"Orange","f","accept",4,309
"119","id0005",1,13,0,0,"human","None",9,1,"CornflowerBlue","j","reject",0,318
"120","id0005",1,14,0,0,"human","None",5,5,"CornflowerBlue","f","accept",5,649
"121","id0005",1,15,0,0,"AI","None",9,1,"Orange","j","reject",0,629
"122","id0005",1,16,0,0,"human","None",9,1,"CornflowerBlue","j","reject",0,648
"123","id0005",1,17,0,0,"human","None",7,3,"CornflowerBlue","j","reject",0,788
"124","id0005",1,18,0,0,"human","None",4,6,"CornflowerBlue","f","accept",6,573
"125","id0005",1,19,0,0,"AI","None",8,2,"Orange","j","reject",0,631
"126","id0005",1,20,0,0,"human","None",5,5,"CornflowerBlue","f","accept",5,549
"127","id0005",1,21,0,0,"human","None",6,4,"CornflowerBlue","f","accept",4,460
"128","id0005",1,22,0,0,"AI","None",8,2,"Orange","j","reject",0,708
"129","id0005",1,23,0,0,"human","None",6,4,"CornflowerBlue","f","accept",4,480
"130","id0005",1,24,0,0,"AI","None",7,3,"Orange","j","reject",0,799
"131","id0006",0,1,1,0,"practice","Practice",7,3,"black","f","accept",3,744
"132","id0006",0,2,1,0,"practice","Practice",5,5,"black","j","reject",0,517
"133","id0006",1,1,0,0,"human","None",7,3,"Orange","f","accept",3,550
"134","id0006",1,2,0,0,"AI","None",9,1,"CornflowerBlue","f","accept",1,452
"135","id0006",1,3,0,0,"AI","None",8,2,"CornflowerBlue","f","accept",2,308
"136","id0006",1,4,0,0,"human","None",9,1,"Orange","f","accept",1,268
"137","id0006",1,5,0,0,"AI","None",4,6,"CornflowerBlue","f","accept",6,411
"138","id0006",1,6,0,0,"AI","None",6,4,"CornflowerBlue","f","accept",4,305
"139","id0006",1,7,0,0,"human","None",5,5,"Orange","f","accept",5,285
"140","id0006",1,8,0,0,"human","None",6,4,"Orange","f","accept",4,262
"141","id0006",1,9,0,0,"AI","None",7,3,"CornflowerBlue","f","accept",3,469
"142","id0006",1,10,0,0,"AI","None",5,5,"CornflowerBlue","f","accept",5,264
"143","id0006",1,11,0,0,"human","None",7,3,"Orange","f","accept",3,260
"144","id0006",1,12,0,0,"AI","None",5,5,"CornflowerBlue","f","accept",5,645
"145","id0006",1,13,0,1,"human","None",8,2,"Orange","f","accept",2,513
"146","id0006",1,14,0,0,"AI","None",6,4,"CornflowerBlue","f","accept",4,286
"147","id0006",1,15,0,0,"human","None",4,6,"Orange","f","accept",6,337
"148","id0006",1,16,0,0,"human","None",8,2,"Orange","f","accept",2,358
"149","id0006",1,17,0,0,"AI","None",7,3,"CornflowerBlue","f","accept",3,308
"150","id0006",1,18,0,0,"human","None",9,1,"Orange","f","accept",1,360
"151","id0006",1,19,0,0,"AI","None",8,2,"CornflowerBlue","f","accept",2,360
"152","id0006",1,20,0,0,"AI","None",9,1,"CornflowerBlue","f","accept",1,361
"153","id0006",1,21,0,0,"AI","None",4,6,"CornflowerBlue","f","accept",6,645
"154","id0006",1,22,0,0,"human","None",4,6,"Orange","f","accept",6,323
"155","id0006",1,23,0,0,"human","None",6,4,"Orange","f","accept",4,289
"156","id0006",1,24,0,0,"human","None",5,5,"Orange","f","accept",5,135
"157","id0007",0,1,1,0,"practice","Practice",4,6,"black","f","accept",6,232
"158","id0007",0,2,1,0,"practice","Practice",9,1,"black","j","reject",0,1025
"159","id0007",1,1,0,0,"AI","Proposer",4,6,"Orange","f","accept",6,817
"160","id0007",1,2,0,0,"human","Proposer",6,4,"CornflowerBlue","f","accept",4,277
"161","id0007",1,3,0,0,"AI","Proposer",7,3,"Orange","f","accept",3,1727
"162","id0007",1,4,0,0,"human","Proposer",7,3,"CornflowerBlue","f","accept",3,466
"163","id0007",1,5,0,0,"AI","Proposer",5,5,"Orange","f","accept",5,152
"164","id0007",1,6,0,0,"AI","Proposer",9,1,"Orange","j","reject",0,355
"165","id0007",1,7,0,0,"AI","Proposer",7,3,"Orange","f","accept",3,443
"166","id0007",1,8,0,0,"AI","Proposer",6,4,"Orange","f","accept",4,806
"167","id0007",1,9,0,0,"human","Proposer",5,5,"CornflowerBlue","f","accept",5,350
"168","id0007",1,10,0,0,"AI","Proposer",8,2,"Orange","j","reject",0,800
"169","id0007",1,11,0,0,"human","Proposer",5,5,"CornflowerBlue","f","accept",5,325
"170","id0007",1,12,0,0,"human","Proposer",8,2,"CornflowerBlue","j","reject",0,26
"171","id0007",1,13,0,0,"human","Proposer",9,1,"CornflowerBlue","j","reject",0,367
"172","id0007",1,14,0,1,"human","Proposer",7,3,"CornflowerBlue","f","accept",3,320
"173","id0007",1,15,0,0,"human","Proposer",6,4,"CornflowerBlue","f","accept",4,413
"174","id0007",1,16,0,0,"AI","Proposer",9,1,"Orange","j","reject",0,336
"175","id0007",1,17,0,0,"AI","Proposer",6,4,"Orange","f","accept",4,1001
"176","id0007",1,18,0,0,"human","Proposer",9,1,"CornflowerBlue","j","reject",0,307
"177","id0007",1,19,0,0,"AI","Proposer",4,6,"Orange","f","accept",6,368
"178","id0007",1,20,0,0,"human","Proposer",4,6,"CornflowerBlue","f","accept",6,342
"179","id0007",1,21,0,0,"human","Proposer",4,6,"CornflowerBlue","f","accept",6,352
"180","id0007",1,22,0,0,"human","Proposer",8,2,"CornflowerBlue","j","reject",0,324
"181","id0007",1,23,0,0,"AI","Proposer",5,5,"Orange","f","accept",5,485
"182","id0007",1,24,0,0,"AI","Proposer",8,2,"Orange","j","reject",0,310
"183","id0008",0,1,1,0,"practice","Practice",9,1,"black","f","accept",1,4535
"184","id0008",0,2,1,0,"practice","Practice",9,1,"black","j","reject",0,1990
"185","id0008",1,1,0,0,"human","None",4,6,"Orange","f","accept",6,4152
"186","id0008",1,2,0,0,"human","None",5,5,"Orange","f","accept",5,453
"187","id0008",1,3,0,0,"human","None",6,4,"Orange","j","reject",0,326
"188","id0008",1,4,0,0,"human","None",7,3,"Orange","j","reject",0,62
"189","id0008",1,5,0,0,"human","None",5,5,"Orange","f","accept",5,307
"190","id0008",1,6,0,0,"AI","None",6,4,"CornflowerBlue","j","reject",0,215
"191","id0008",1,7,0,0,"human","None",6,4,"Orange","j","reject",0,364
"192","id0008",1,8,0,0,"AI","None",4,6,"CornflowerBlue","f","accept",6,825
"193","id0008",1,9,0,0,"AI","None",6,4,"CornflowerBlue","j","reject",0,310
"194","id0008",1,10,0,0,"human","None",9,1,"Orange","j","reject",0,330
"195","id0008",1,11,0,0,"AI","None",7,3,"CornflowerBlue","j","reject",0,650
"196","id0008",1,12,0,0,"AI","None",7,3,"CornflowerBlue","j","reject",0,292
"197","id0008",1,13,0,1,"AI","None",5,5,"CornflowerBlue","f","accept",5,1391
"198","id0008",1,14,0,0,"human","None",7,3,"Orange","j","reject",0,296
"199","id0008",1,15,0,0,"AI","None",8,2,"CornflowerBlue","j","reject",0,256
"200","id0008",1,16,0,0,"human","None",8,2,"Orange","j","reject",0,343
"201","id0008",1,17,0,0,"AI","None",5,5,"CornflowerBlue","f","accept",5,270
"202","id0008",1,18,0,0,"human","None",8,2,"Orange","j","reject",0,269
"203","id0008",1,19,0,0,"human","None",4,6,"Orange","f","accept",6,219
"204","id0008",1,20,0,0,"AI","None",9,1,"CornflowerBlue","j","reject",0,240
"205","id0008",1,21,0,0,"AI","None",8,2,"CornflowerBlue","j","reject",0,269
"206","id0008",1,22,0,0,"human","None",9,1,"Orange","j","reject",0,231
"207","id0008",1,23,0,0,"AI","None",4,6,"CornflowerBlue","f","accept",6,206
"208","id0008",1,24,0,0,"AI","None",9,1,"CornflowerBlue","j","reject",0,349
"209","id0009",0,1,1,0,"practice","Practice",8,2,"black","j","reject",0,1916
"210","id0009",0,2,1,0,"practice","Practice",8,2,"black","j","reject",0,492
"211","id0009",1,1,0,0,"human","Proposer",6,4,"Orange","j","reject",0,934
"212","id0009",1,2,0,0,"AI","Proposer",7,3,"CornflowerBlue","j","reject",0,132
"213","id0009",1,3,0,0,"human","Proposer",8,2,"Orange","j","reject",0,358
"214","id0009",1,4,0,0,"human","Proposer",5,5,"Orange","f","accept",5,949
"215","id0009",1,5,0,0,"AI","Proposer",7,3,"CornflowerBlue","j","reject",0,313
"216","id0009",1,6,0,0,"AI","Proposer",4,6,"CornflowerBlue","f","accept",6,296
"217","id0009",1,7,0,0,"AI","Proposer",6,4,"CornflowerBlue","j","reject",0,293
"218","id0009",1,8,0,0,"human","Proposer",5,5,"Orange","f","accept",5,2179
"219","id0009",1,9,0,0,"AI","Proposer",4,6,"CornflowerBlue","f","accept",6,521
"220","id0009",1,10,0,0,"human","Proposer",4,6,"Orange","f","accept",6,286
"221","id0009",1,11,0,0,"AI","Proposer",9,1,"CornflowerBlue","j","reject",0,266
"222","id0009",1,12,0,0,"AI","Proposer",6,4,"CornflowerBlue","j","reject",0,324
"223","id0009",1,13,0,0,"AI","Proposer",5,5,"CornflowerBlue","f","accept",5,274
"224","id0009",1,14,0,0,"AI","Proposer",9,1,"CornflowerBlue","j","reject",0,303
"225","id0009",1,15,0,0,"human","Proposer",4,6,"Orange","f","accept",6,271
"226","id0009",1,16,0,0,"AI","Proposer",8,2,"CornflowerBlue","j","reject",0,260
"227","id0009",1,17,0,0,"human","Proposer",9,1,"Orange","j","reject",0,342
"228","id0009",1,18,0,0,"human","Proposer",6,4,"Orange","j","reject",0,359
"229","id0009",1,19,0,1,"human","Proposer",9,1,"Orange","j","reject",0,305
"230","id0009",1,20,0,0,"human","Proposer",7,3,"Orange","j","reject",0,289
"231","id0009",1,21,0,0,"AI","Proposer",5,5,"CornflowerBlue","f","accept",5,307
"232","id0009",1,22,0,0,"human","Proposer",7,3,"Orange","j","reject",0,335
"233","id0009",1,23,0,0,"AI","Proposer",8,2,"CornflowerBlue","j","reject",0,317
"234","id0009",1,24,0,0,"human","Proposer",8,2,"Orange","j","reject",0,1578
"235","id0010",0,1,1,0,"practice","Practice",9,1,"black","f","accept",1,3521
"236","id0010",0,2,1,0,"practice","Practice",8,2,"black","f","accept",2,256
"237","id0010",1,1,0,0,"human","Proposer",9,1,"Orange","j","reject",0,4860
"238","id0010",1,2,0,0,"AI","Proposer",8,2,"CornflowerBlue","j","reject",0,1385
"239","id0010",1,3,0,0,"AI","Proposer",4,6,"CornflowerBlue","f","accept",6,279
"240","id0010",1,4,0,0,"AI","Proposer",8,2,"CornflowerBlue","f","accept",2,315
"241","id0010",1,5,0,0,"human","Proposer",4,6,"Orange","f","accept",6,238
"242","id0010",1,6,0,0,"AI","Proposer",9,1,"CornflowerBlue","f","accept",1,290
"243","id0010",1,7,0,0,"AI","Proposer",6,4,"CornflowerBlue","f","accept",4,245
"244","id0010",1,8,0,0,"AI","Proposer",6,4,"CornflowerBlue","f","accept",4,765
"245","id0010",1,9,0,0,"human","Proposer",8,2,"Orange","f","accept",2,374
"246","id0010",1,10,0,0,"human","Proposer",6,4,"Orange","f","accept",4,1
"247","id0010",1,11,0,0,"AI","Proposer",5,5,"CornflowerBlue","f","accept",5,291
"248","id0010",1,12,0,0,"human","Proposer",6,4,"Orange","f","accept",4,242
"249","id0010",1,13,0,0,"human","Proposer",8,2,"Orange","f","accept",2,4506
"250","id0010",1,14,0,0,"AI","Proposer",7,3,"CornflowerBlue","f","accept",3,270
"251","id0010",1,15,0,0,"AI","Proposer",7,3,"CornflowerBlue","f","accept",3,447
"252","id0010",1,16,0,0,"AI","Proposer",5,5,"CornflowerBlue","f","accept",5,261
"253","id0010",1,17,0,1,"human","Proposer",7,3,"Orange","f","accept",3,347
"254","id0010",1,18,0,0,"human","Proposer",5,5,"Orange","f","accept",5,358
"255","id0010",1,19,0,0,"AI","Proposer",4,6,"CornflowerBlue","f","accept",6,302
"256","id0010",1,20,0,0,"human","Proposer",4,6,"Orange","f","accept",6,296
"257","id0010",1,21,0,0,"human","Proposer",5,5,"Orange","f","accept",5,254
"258","id0010",1,22,0,0,"human","Proposer",7,3,"Orange","f","accept",3,344
"259","id0010",1,23,0,0,"AI","Proposer",9,1,"CornflowerBlue","f","accept",1,340
"260","id0010",1,24,0,0,"human","Proposer",9,1,"Orange","f","accept",1,48
"261","id0011",0,1,1,0,"practice","Practice",3,7,"black","f","accept",7,993
"262","id0011",0,2,1,0,"practice","Practice",1,9,"black","f","accept",9,793
"263","id0011",1,1,0,0,"AI","None",7,3,"CornflowerBlue","f","accept",3,781
"264","id0011",1,2,0,0,"AI","None",4,6,"CornflowerBlue","f","accept",6,423
"265","id0011",1,3,0,0,"AI","None",6,4,"CornflowerBlue","f","accept",4,287
"266","id0011",1,4,0,0,"AI","None",6,4,"CornflowerBlue","f","accept",4,365
"267","id0011",1,5,0,0,"human","None",7,3,"Orange","f","accept",3,408
"268","id0011",1,6,0,0,"AI","None",5,5,"CornflowerBlue","f","accept",5,356
"269","id0011",1,7,0,0,"human","None",5,5,"Orange","f","accept",5,396
"270","id0011",1,8,0,0,"AI","None",7,3,"CornflowerBlue","f","accept",3,282
"271","id0011",1,9,0,0,"human","None",6,4,"Orange","f","accept",4,506
"272","id0011",1,10,0,1,"human","None",9,1,"Orange","f","accept",1,725
"273","id0011",1,11,0,0,"human","None",4,6,"Orange","f","accept",6,390
"274","id0011",1,12,0,0,"AI","None",8,2,"CornflowerBlue","f","accept",2,373
"275","id0011",1,13,0,0,"AI","None",9,1,"CornflowerBlue","f","accept",1,388
"276","id0011",1,14,0,0,"human","None",8,2,"Orange","f","accept",2,2401
"277","id0011",1,15,0,0,"human","None",4,6,"Orange","f","accept",6,336
"278","id0011",1,16,0,0,"human","None",8,2,"Orange","f","accept",2,2125
"279","id0011",1,17,0,0,"human","None",7,3,"Orange","f","accept",3,329
"280","id0011",1,18,0,0,"AI","None",4,6,"CornflowerBlue","f","accept",6,326
"281","id0011",1,19,0,0,"human","None",6,4,"Orange","f","accept",4,317
"282","id0011",1,20,0,0,"AI","None",9,1,"CornflowerBlue","f","accept",1,700
"283","id0011",1,21,0,0,"AI","None",5,5,"CornflowerBlue","f","accept",5,349
"284","id0011",1,22,0,0,"AI","None",8,2,"CornflowerBlue","f","accept",2,294
"285","id0011",1,23,0,0,"human","None",9,1,"Orange","j","reject",0,676
"286","id0011",1,24,0,0,"human","None",5,5,"Orange","f","accept",5,294
"287","id0012",0,1,1,0,"practice","Practice",0,10,"black","j","reject",0,5107
"288","id0012",0,2,1,0,"practice","Practice",0,10,"black","j","reject",0,2654
"289","id0012",1,1,0,0,"human","None",7,3,"Orange","f","accept",3,18643
"290","id0012",1,2,0,0,"human","None",4,6,"Orange","f","accept",6,528
"291","id0012",1,3,0,0,"AI","None",6,4,"CornflowerBlue","f","accept",4,1239
"292","id0012",1,4,0,0,"AI","None",8,2,"CornflowerBlue","j","reject",0,463
"293","id0012",1,5,0,0,"AI","None",8,2,"CornflowerBlue","j","reject",0,580
"294","id0012",1,6,0,0,"AI","None",4,6,"CornflowerBlue","f","accept",6,339
"295","id0012",1,7,0,0,"AI","None",9,1,"CornflowerBlue","j","reject",0,375
"296","id0012",1,8,0,0,"AI","None",4,6,"CornflowerBlue","f","accept",6,357
"297","id0012",1,9,0,0,"AI","None",7,3,"CornflowerBlue","j","reject",0,386
"298","id0012",1,10,0,0,"human","None",6,4,"Orange","f","accept",4,431
"299","id0012",1,11,0,0,"human","None",5,5,"Orange","f","accept",5,320
"300","id0012",1,12,0,0,"AI","None",6,4,"CornflowerBlue","j","reject",0,499
"301","id0012",1,13,0,0,"human","None",8,2,"Orange","f","accept",2,364
"302","id0012",1,14,0,0,"human","None",7,3,"Orange","j","reject",0,191
"303","id0012",1,15,0,0,"human","None",9,1,"Orange","f","accept",1,1703
"304","id0012",1,16,0,0,"human","None",5,5,"Orange","f","accept",5,335
"305","id0012",1,17,0,0,"AI","None",7,3,"CornflowerBlue","f","accept",3,372
"306","id0012",1,18,0,1,"AI","None",9,1,"CornflowerBlue","j","reject",0,386
"307","id0012",1,19,0,0,"human","None",8,2,"Orange","j","reject",0,869
"308","id0012",1,20,0,0,"AI","None",5,5,"CornflowerBlue","f","accept",5,156
"309","id0012",1,21,0,0,"human","None",6,4,"Orange","f","accept",4,517
"310","id0012",1,22,0,0,"AI","None",5,5,"CornflowerBlue","f","accept",5,82
"311","id0012",1,23,0,0,"human","None",4,6,"Orange","f","accept",6,353
"312","id0012",1,24,0,0,"human","None",9,1,"Orange","j","reject",0,851
"313","id0013",0,1,1,0,"practice","Practice",4,6,"black","f","accept",6,4046
"314","id0013",0,2,1,0,"practice","Practice",9,1,"black","j","reject",0,850
"315","id0013",1,1,0,0,"human","None",7,3,"CornflowerBlue","f","accept",3,2071
"316","id0013",1,2,0,0,"AI","None",8,2,"Orange","j","reject",0,1185
"317","id0013",1,3,0,0,"human","None",9,1,"CornflowerBlue","j","reject",0,1016
"318","id0013",1,4,0,0,"AI","None",7,3,"Orange","f","accept",3,335
"319","id0013",1,5,0,0,"human","None",9,1,"CornflowerBlue","j","reject",0,847
"320","id0013",1,6,0,0,"human","None",6,4,"CornflowerBlue","f","accept",4,456
"321","id0013",1,7,0,0,"human","None",8,2,"CornflowerBlue","f","accept",2,724
"322","id0013",1,8,0,0,"human","None",4,6,"CornflowerBlue","f","accept",6,516
"323","id0013",1,9,0,0,"AI","None",4,6,"Orange","f","accept",6,505
"324","id0013",1,10,0,0,"AI","None",6,4,"Orange","f","accept",4,448
"325","id0013",1,11,0,0,"human","None",5,5,"CornflowerBlue","f","accept",5,560
"326","id0013",1,12,0,0,"human","None",6,4,"CornflowerBlue","f","accept",4,454
"327","id0013",1,13,0,0,"AI","None",8,2,"Orange","f","accept",2,604
"328","id0013",1,14,0,0,"AI","None",9,1,"Orange","j","reject",0,472
"329","id0013",1,15,0,0,"human","None",4,6,"CornflowerBlue","f","accept",6,581
"330","id0013",1,16,0,0,"human","None",5,5,"CornflowerBlue","f","accept",5,555
"331","id0013",1,17,0,0,"AI","None",5,5,"Orange","f","accept",5,548
"332","id0013",1,18,0,0,"human","None",7,3,"CornflowerBlue","f","accept",3,598
"333","id0013",1,19,0,1,"human","None",8,2,"CornflowerBlue","f","accept",2,765
"334","id0013",1,20,0,0,"AI","None",4,6,"Orange","f","accept",6,542
"335","id0013",1,21,0,0,"AI","None",6,4,"Orange","f","accept",4,536
"336","id0013",1,22,0,0,"AI","None",7,3,"Orange","f","accept",3,569
"337","id0013",1,23,0,0,"AI","None",5,5,"Orange","f","accept",5,531
"338","id0013",1,24,0,0,"AI","None",9,1,"Orange","j","reject",0,59
"339","id0014",0,1,1,0,"practice","Practice",0,10,"black","j","reject",0,836
"340","id0014",0,2,1,0,"practice","Practice",5,5,"black","f","accept",5,521
"341","id0014",1,1,0,0,"AI","Proposer",5,5,"CornflowerBlue","f","accept",5,1007
"342","id0014",1,2,0,0,"human","Proposer",7,3,"Orange","j","reject",0,460
"343","id0014",1,3,0,0,"human","Proposer",9,1,"Orange","j","reject",0,488
"344","id0014",1,4,0,0,"human","Proposer",8,2,"Orange","j","reject",0,585
"345","id0014",1,5,0,0,"human","Proposer",8,2,"Orange","j","reject",0,359
"346","id0014",1,6,0,0,"AI","Proposer",7,3,"CornflowerBlue","f","accept",3,551
"347","id0014",1,7,0,0,"AI","Proposer",8,2,"CornflowerBlue","j","reject",0,426
"348","id0014",1,8,0,0,"AI","Proposer",4,6,"CornflowerBlue","f","accept",6,607
"349","id0014",1,9,0,0,"human","Proposer",5,5,"Orange","f","accept",5,401
"350","id0014",1,10,0,0,"AI","Proposer",8,2,"CornflowerBlue","j","reject",0,453
"351","id0014",1,11,0,0,"human","Proposer",6,4,"Orange","f","accept",4,452
"352","id0014",1,12,0,0,"AI","Proposer",4,6,"CornflowerBlue","f","accept",6,364
"353","id0014",1,13,0,0,"human","Proposer",4,6,"Orange","f","accept",6,455
"354","id0014",1,14,0,0,"AI","Proposer",6,4,"CornflowerBlue","f","accept",4,466
"355","id0014",1,15,0,0,"AI","Proposer",7,3,"CornflowerBlue","j","reject",0,405
"356","id0014",1,16,0,0,"human","Proposer",5,5,"Orange","f","accept",5,449
"357","id0014",1,17,0,0,"human","Proposer",4,6,"Orange","f","accept",6,385
"358","id0014",1,18,0,0,"AI","Proposer",6,4,"CornflowerBlue","f","accept",4,461
"359","id0014",1,19,0,0,"AI","Proposer",5,5,"CornflowerBlue","f","accept",5,522
"360","id0014",1,20,0,0,"AI","Proposer",9,1,"CornflowerBlue","j","reject",0,404
"361","id0014",1,21,0,0,"human","Proposer",9,1,"Orange","j","reject",0,372
"362","id0014",1,22,0,0,"AI","Proposer",9,1,"CornflowerBlue","j","reject",0,400
"363","id0014",1,23,0,0,"human","Proposer",6,4,"Orange","f","accept",4,1009
"364","id0014",1,24,0,1,"human","Proposer",7,3,"Orange","f","accept",3,1325
"365","id0015",0,1,1,0,"practice","Practice",3,7,"black","f","accept",7,983
"366","id0015",0,2,1,0,"practice","Practice",6,4,"black","f","accept",4,988
"367","id0015",1,1,0,0,"human","None",5,5,"Orange","f","accept",5,717
"368","id0015",1,2,0,0,"AI","None",9,1,"CornflowerBlue","j","reject",0,734
"369","id0015",1,3,0,0,"AI","None",7,3,"CornflowerBlue","j","reject",0,739
"370","id0015",1,4,0,0,"human","None",7,3,"Orange","j","reject",0,634
"371","id0015",1,5,0,0,"human","None",8,2,"Orange","j","reject",0,741
"372","id0015",1,6,0,0,"human","None",4,6,"Orange","f","accept",6,573
"373","id0015",1,7,0,1,"AI","None",5,5,"CornflowerBlue","f","accept",5,768
"374","id0015",1,8,0,0,"human","None",9,1,"Orange","j","reject",0,206
"375","id0015",1,9,0,0,"AI","None",4,6,"CornflowerBlue","f","accept",6,609
"376","id0015",1,10,0,0,"AI","None",5,5,"CornflowerBlue","f","accept",5,601
"377","id0015",1,11,0,0,"AI","None",9,1,"CornflowerBlue","j","reject",0,1029
"378","id0015",1,12,0,0,"AI","None",8,2,"CornflowerBlue","j","reject",0,959
"379","id0015",1,13,0,0,"AI","None",4,6,"CornflowerBlue","f","accept",6,743
"380","id0015",1,14,0,0,"AI","None",8,2,"CornflowerBlue","j","reject",0,776
"381","id0015",1,15,0,0,"AI","None",7,3,"CornflowerBlue","j","reject",0,706
"382","id0015",1,16,0,0,"human","None",6,4,"Orange","f","accept",4,953
"383","id0015",1,17,0,0,"human","None",9,1,"Orange","j","reject",0,671
"384","id0015",1,18,0,0,"AI","None",6,4,"CornflowerBlue","f","accept",4,803
"385","id0015",1,19,0,0,"AI","None",6,4,"CornflowerBlue","f","accept",4,997
"386","id0015",1,20,0,0,"human","None",8,2,"Orange","j","reject",0,818
"387","id0015",1,21,0,0,"human","None",6,4,"Orange","j","reject",0,1224
"388","id0015",1,22,0,0,"human","None",4,6,"Orange","f","accept",6,556
"389","id0015",1,23,0,0,"human","None",7,3,"Orange","j","reject",0,759
"390","id0015",1,24,0,0,"human","None",5,5,"Orange","f","accept",5,656
"391","id0016",0,1,1,0,"practice","Practice",2,8,"black","f","accept",8,2676
"392","id0016",0,2,1,0,"practice","Practice",3,7,"black","f","accept",7,635
"393","id0016",1,1,0,0,"AI","None",8,2,"CornflowerBlue","f","accept",2,659
"394","id0016",1,2,0,0,"AI","None",5,5,"CornflowerBlue","f","accept",5,263
"395","id0016",1,3,0,0,"human","None",6,4,"Orange","f","accept",4,347
"396","id0016",1,4,0,0,"AI","None",7,3,"CornflowerBlue","f","accept",3,274
"397","id0016",1,5,0,0,"human","None",7,3,"Orange","f","accept",3,245
"398","id0016",1,6,0,0,"AI","None",7,3,"CornflowerBlue","f","accept",3,242
"399","id0016",1,7,0,1,"human","None",9,1,"Orange","f","accept",1,87
"400","id0016",1,8,0,0,"human","None",4,6,"Orange","f","accept",6,217
"401","id0016",1,9,0,0,"AI","None",6,4,"CornflowerBlue","f","accept",4,214
"402","id0016",1,10,0,0,"AI","None",9,1,"CornflowerBlue","f","accept",1,315
"403","id0016",1,11,0,0,"human","None",6,4,"Orange","f","accept",4,300
"404","id0016",1,12,0,0,"AI","None",8,2,"CornflowerBlue","f","accept",2,301
"405","id0016",1,13,0,0,"human","None",8,2,"Orange","f","accept",2,223
"406","id0016",1,14,0,0,"AI","None",4,6,"CornflowerBlue","f","accept",6,267
"407","id0016",1,15,0,0,"AI","None",6,4,"CornflowerBlue","f","accept",4,295
"408","id0016",1,16,0,0,"human","None",7,3,"Orange","f","accept",3,297
"409","id0016",1,17,0,0,"AI","None",5,5,"CornflowerBlue","f","accept",5,300
"410","id0016",1,18,0,0,"AI","None",9,1,"CornflowerBlue","f","accept",1,241
"411","id0016",1,19,0,0,"human","None",9,1,"Orange","f","accept",1,240
"412","id0016",1,20,0,0,"AI","None",4,6,"CornflowerBlue","f","accept",6,415
"413","id0016",1,21,0,0,"human","None",4,6,"Orange","f","accept",6,183
"414","id0016",1,22,0,0,"human","None",5,5,"Orange","f","accept",5,270
"415","id0016",1,23,0,0,"human","None",5,5,"Orange","f","accept",5,166
"416","id0016",1,24,0,0,"human","None",8,2,"Orange","f","accept",2,290
"417","id0017",0,1,1,0,"practice","Practice",0,10,"black","f","accept",10,188
"418","id0017",0,2,1,0,"practice","Practice",7,3,"black","f","accept",3,337
"419","id0017",1,1,0,0,"human","None",5,5,"Orange","f","accept",5,500
"420","id0017",1,2,0,0,"human","None",7,3,"Orange","f","accept",3,428
"421","id0017",1,3,0,0,"human","None",6,4,"Orange","f","accept",4,283
"422","id0017",1,4,0,0,"human","None",6,4,"Orange","f","accept",4,368
"423","id0017",1,5,0,0,"human","None",9,1,"Orange","f","accept",1,357
"424","id0017",1,6,0,1,"AI","None",6,4,"CornflowerBlue","f","accept",4,384
"425","id0017",1,7,0,0,"human","None",7,3,"Orange","f","accept",3,292
"426","id0017",1,8,0,0,"AI","None",8,2,"CornflowerBlue","f","accept",2,347
"427","id0017",1,9,0,0,"AI","None",9,1,"CornflowerBlue","f","accept",1,299
"428","id0017",1,10,0,0,"AI","None",7,3,"CornflowerBlue","f","accept",3,309
"429","id0017",1,11,0,0,"AI","None",4,6,"CornflowerBlue","f","accept",6,272
"430","id0017",1,12,0,0,"AI","None",5,5,"CornflowerBlue","f","accept",5,320
"431","id0017",1,13,0,0,"AI","None",9,1,"CornflowerBlue","f","accept",1,305
"432","id0017",1,14,0,0,"human","None",4,6,"Orange","f","accept",6,395
"433","id0017",1,15,0,0,"AI","None",5,5,"CornflowerBlue","f","accept",5,280
"434","id0017",1,16,0,0,"AI","None",6,4,"CornflowerBlue","f","accept",4,321
"435","id0017",1,17,0,0,"human","None",5,5,"Orange","f","accept",5,310
"436","id0017",1,18,0,0,"human","None",8,2,"Orange","f","accept",2,409
"437","id0017",1,19,0,0,"AI","None",7,3,"CornflowerBlue","f","accept",3,482
"438","id0017",1,20,0,0,"AI","None",8,2,"CornflowerBlue","f","accept",2,401
"439","id0017",1,21,0,0,"AI","None",4,6,"CornflowerBlue","f","accept",6,346
"440","id0017",1,22,0,0,"human","None",9,1,"Orange","f","accept",1,298
"441","id0017",1,23,0,0,"human","None",8,2,"Orange","f","accept",2,293
"442","id0017",1,24,0,0,"human","None",4,6,"Orange","f","accept",6,344
"443","id0018",0,1,1,0,"practice","Practice",2,8,"black","f","accept",8,7814
"444","id0018",0,2,1,0,"practice","Practice",2,8,"black","f","accept",8,530
"445","id0018",1,1,0,0,"AI","None",8,2,"Orange","f","accept",2,5152
"446","id0018",1,2,0,0,"AI","None",9,1,"Orange","f","accept",1,1320
"447","id0018",1,3,0,0,"AI","None",9,1,"Orange","f","accept",1,670
"448","id0018",1,4,0,0,"human","None",5,5,"CornflowerBlue","f","accept",5,421
"449","id0018",1,5,0,0,"AI","None",8,2,"Orange","f","accept",2,499
"450","id0018",1,6,0,0,"human","None",6,4,"CornflowerBlue","f","accept",4,1659
"451","id0018",1,7,0,0,"human","None",9,1,"CornflowerBlue","f","accept",1,727
"452","id0018",1,8,0,0,"human","None",4,6,"CornflowerBlue","f","accept",6,776
"453","id0018",1,9,0,0,"AI","None",6,4,"Orange","f","accept",4,313
"454","id0018",1,10,0,0,"human","None",8,2,"CornflowerBlue","f","accept",2,416
"455","id0018",1,11,0,0,"human","None",4,6,"CornflowerBlue","f","accept",6,595
"456","id0018",1,12,0,0,"human","None",8,2,"CornflowerBlue","f","accept",2,473
"457","id0018",1,13,0,0,"AI","None",4,6,"Orange","f","accept",6,152
"458","id0018",1,14,0,0,"human","None",6,4,"CornflowerBlue","f","accept",4,509
"459","id0018",1,15,0,0,"human","None",7,3,"CornflowerBlue","f","accept",3,527
"460","id0018",1,16,0,0,"AI","None",7,3,"Orange","f","accept",3,550
"461","id0018",1,17,0,0,"human","None",9,1,"CornflowerBlue","f","accept",1,562
"462","id0018",1,18,0,0,"AI","None",4,6,"Orange","f","accept",6,574
"463","id0018",1,19,0,0,"AI","None",5,5,"Orange","f","accept",5,557
"464","id0018",1,20,0,1,"AI","None",7,3,"Orange","f","accept",3,725
"465","id0018",1,21,0,0,"human","None",7,3,"CornflowerBlue","f","accept",3,832
"466","id0018",1,22,0,0,"human","None",5,5,"CornflowerBlue","f","accept",5,487
"467","id0018",1,23,0,0,"AI","None",5,5,"Orange","f","accept",5,4276
"468","id0018",1,24,0,0,"AI","None",6,4,"Orange","f","accept",4,1298
"469","id0019",0,1,1,0,"practice","Practice",0,10,"black","f","accept",10,821
"470","id0019",0,2,1,0,"practice","Practice",0,10,"black","f","accept",10,2383
"471","id0019",1,1,0,0,"human","None",6,4,"CornflowerBlue","j","reject",0,1843
"472","id0019",1,2,0,0,"AI","None",5,5,"Orange","f","accept",5,558
"473","id0019",1,3,0,0,"AI","None",7,3,"Orange","j","reject",0,1645
"474","id0019",1,4,0,0,"AI","None",9,1,"Orange","j","reject",0,648
"475","id0019",1,5,0,0,"human","None",7,3,"CornflowerBlue","j","reject",0,3710
"476","id0019",1,6,0,0,"AI","None",4,6,"Orange","f","accept",6,1478
"477","id0019",1,7,0,0,"human","None",6,4,"CornflowerBlue","j","reject",0,1165
"478","id0019",1,8,0,0,"AI","None",6,4,"Orange","j","reject",0,994
"479","id0019",1,9,0,0,"human","None",4,6,"CornflowerBlue","f","accept",6,457
"480","id0019",1,10,0,0,"AI","None",6,4,"Orange","j","reject",0,2230
"481","id0019",1,11,0,0,"AI","None",7,3,"Orange","j","reject",0,691
"482","id0019",1,12,0,0,"AI","None",8,2,"Orange","j","reject",0,909
"483","id0019",1,13,0,0,"AI","None",4,6,"Orange","f","accept",6,728
"484","id0019",1,14,0,0,"human","None",8,2,"CornflowerBlue","j","reject",0,2156
"485","id0019",1,15,0,0,"human","None",4,6,"CornflowerBlue","f","accept",6,465
"486","id0019",1,16,0,1,"AI","None",8,2,"Orange","j","reject",0,274
"487","id0019",1,17,0,0,"human","None",9,1,"CornflowerBlue","j","reject",0,352
"488","id0019",1,18,0,0,"AI","None",5,5,"Orange","f","accept",5,295
"489","id0019",1,19,0,0,"human","None",5,5,"CornflowerBlue","f","accept",5,289
"490","id0019",1,20,0,0,"human","None",5,5,"CornflowerBlue","f","accept",5,315
"491","id0019",1,21,0,0,"human","None",7,3,"CornflowerBlue","j","reject",0,359
"492","id0019",1,22,0,0,"AI","None",9,1,"Orange","j","reject",0,320
"493","id0019",1,23,0,0,"human","None",8,2,"CornflowerBlue","j","reject",0,482
"494","id0019",1,24,0,0,"human","None",9,1,"CornflowerBlue","j","reject",0,425
"495","id0020",0,1,1,0,"practice","Practice",4,6,"black","f","accept",6,850
"496","id0020",0,2,1,0,"practice","Practice",9,1,"black","j","reject",0,535
"497","id0020",1,1,0,0,"human","None",6,4,"Orange","f","accept",4,6018
"498","id0020",1,2,0,0,"AI","None",8,2,"CornflowerBlue","j","reject",0,397
"499","id0020",1,3,0,0,"human","None",9,1,"Orange","j","reject",0,328
"500","id0020",1,4,0,0,"AI","None",9,1,"CornflowerBlue","j","reject",0,282
"501","id0020",1,5,0,0,"AI","None",6,4,"CornflowerBlue","f","accept",4,728
"502","id0020",1,6,0,0,"human","None",5,5,"Orange","f","accept",5,477
"503","id0020",1,7,0,0,"AI","None",4,6,"CornflowerBlue","f","accept",6,289
"504","id0020",1,8,0,0,"human","None",8,2,"Orange","j","reject",0,344
"505","id0020",1,9,0,0,"human","None",6,4,"Orange","f","accept",4,1652
"506","id0020",1,10,0,1,"AI","None",4,6,"CornflowerBlue","f","accept",6,1213
"507","id0020",1,11,0,0,"AI","None",6,4,"CornflowerBlue","f","accept",4,3137
"508","id0020",1,12,0,0,"human","None",7,3,"Orange","j","reject",0,1557
"509","id0020",1,13,0,0,"AI","None",9,1,"CornflowerBlue","j","reject",0,1976
"510","id0020",1,14,0,0,"AI","None",7,3,"CornflowerBlue","j","reject",0,653
"511","id0020",1,15,0,0,"human","None",4,6,"Orange","f","accept",6,408
"512","id0020",1,16,0,0,"AI","None",5,5,"CornflowerBlue","f","accept",5,1923
"513","id0020",1,17,0,0,"human","None",5,5,"Orange","f","accept",5,419
"514","id0020",1,18,0,0,"human","None",9,1,"Orange","j","reject",0,3538
"515","id0020",1,19,0,0,"human","None",4,6,"Orange","f","accept",6,1303
"516","id0020",1,20,0,0,"AI","None",5,5,"CornflowerBlue","f","accept",5,253
"517","id0020",1,21,0,0,"human","None",8,2,"Orange","j","reject",0,1642
"518","id0020",1,22,0,0,"human","None",7,3,"Orange","j","reject",0,3313
"519","id0020",1,23,0,0,"AI","None",8,2,"CornflowerBlue","j","reject",0,2616
"520","id0020",1,24,0,0,"AI","None",7,3,"CornflowerBlue","j","reject",0,267
"521","id0021",0,1,1,0,"practice","Practice",3,7,"black","j","reject",0,627
"522","id0021",0,2,1,0,"practice","Practice",6,4,"black","j","reject",0,90
"523","id0021",1,1,0,0,"AI","None",6,4,"Orange","j","reject",0,637
"524","id0021",1,2,0,1,"human","None",6,4,"CornflowerBlue","j","reject",0,351
"525","id0021",1,3,0,0,"human","None",7,3,"CornflowerBlue","j","reject",0,316
"526","id0021",1,4,0,0,"human","None",5,5,"CornflowerBlue","f","accept",5,341
"527","id0021",1,5,0,0,"human","None",8,2,"CornflowerBlue","j","reject",0,623
"528","id0021",1,6,0,0,"AI","None",9,1,"Orange","j","reject",0,403
"529","id0021",1,7,0,0,"AI","None",5,5,"Orange","f","accept",5,466
"530","id0021",1,8,0,0,"human","None",7,3,"CornflowerBlue","j","reject",0,422
"531","id0021",1,9,0,0,"human","None",9,1,"CornflowerBlue","j","reject",0,423
"532","id0021",1,10,0,0,"human","None",8,2,"CornflowerBlue","j","reject",0,16
"533","id0021",1,11,0,0,"AI","None",8,2,"Orange","j","reject",0,1057
"534","id0021",1,12,0,0,"human","None",9,1,"CornflowerBlue","j","reject",0,9
"535","id0021",1,13,0,0,"AI","None",9,1,"Orange","j","reject",0,997
"536","id0021",1,14,0,0,"human","None",4,6,"CornflowerBlue","f","accept",6,356
"537","id0021",1,15,0,0,"AI","None",7,3,"Orange","j","reject",0,199
"538","id0021",1,16,0,0,"human","None",5,5,"CornflowerBlue","f","accept",5,266
"539","id0021",1,17,0,0,"AI","None",7,3,"Orange","j","reject",0,670
"540","id0021",1,18,0,0,"AI","None",8,2,"Orange","j","reject",0,400
"541","id0021",1,19,0,0,"AI","None",5,5,"Orange","f","accept",5,267
"542","id0021",1,20,0,0,"AI","None",4,6,"Orange","f","accept",6,894
"543","id0021",1,21,0,0,"AI","None",6,4,"Orange","j","reject",0,16
"544","id0021",1,22,0,0,"human","None",6,4,"CornflowerBlue","j","reject",0,515
"545","id0021",1,23,0,0,"AI","None",4,6,"Orange","f","accept",6,447
"546","id0021",1,24,0,0,"human","None",4,6,"CornflowerBlue","f","accept",6,108
"547","id0022",0,1,1,0,"practice","Practice",7,3,"black","j","reject",0,1350
"548","id0022",0,2,1,0,"practice","Practice",3,7,"black","f","accept",7,802
"549","id0022",1,1,0,1,"human","Proposer",4,6,"CornflowerBlue","f","accept",6,862
"550","id0022",1,2,0,0,"AI","Proposer",7,3,"Orange","f","accept",3,175
"551","id0022",1,3,0,0,"human","Proposer",6,4,"CornflowerBlue","f","accept",4,47
"552","id0022",1,4,0,0,"AI","Proposer",7,3,"Orange","f","accept",3,1303
"553","id0022",1,5,0,0,"AI","Proposer",4,6,"Orange","f","accept",6,554
"554","id0022",1,6,0,0,"AI","Proposer",6,4,"Orange","f","accept",4,634
"555","id0022",1,7,0,0,"AI","Proposer",4,6,"Orange","f","accept",6,374
"556","id0022",1,8,0,0,"human","Proposer",8,2,"CornflowerBlue","j","reject",0,389
"557","id0022",1,9,0,0,"human","Proposer",8,2,"CornflowerBlue","j","reject",0,677
"558","id0022",1,10,0,0,"AI","Proposer",8,2,"Orange","j","reject",0,540
"559","id0022",1,11,0,0,"AI","Proposer",5,5,"Orange","f","accept",5,648
"560","id0022",1,12,0,0,"human","Proposer",5,5,"CornflowerBlue","f","accept",5,820
"561","id0022",1,13,0,0,"AI","Proposer",6,4,"Orange","f","accept",4,659
"562","id0022",1,14,0,0,"human","Proposer",7,3,"CornflowerBlue","j","reject",0,602
"563","id0022",1,15,0,0,"human","Proposer",7,3,"CornflowerBlue","j","reject",0,604
"564","id0022",1,16,0,0,"AI","Proposer",5,5,"Orange","f","accept",5,429
"565","id0022",1,17,0,0,"AI","Proposer",9,1,"Orange","j","reject",0,808
"566","id0022",1,18,0,0,"human","Proposer",4,6,"CornflowerBlue","f","accept",6,472
"567","id0022",1,19,0,0,"human","Proposer",6,4,"CornflowerBlue","f","accept",4,653
"568","id0022",1,20,0,0,"human","Proposer",9,1,"CornflowerBlue","j","reject",0,862
"569","id0022",1,21,0,0,"AI","Proposer",9,1,"Orange","j","reject",0,673
"570","id0022",1,22,0,0,"AI","Proposer",8,2,"Orange","j","reject",0,543
"571","id0022",1,23,0,0,"human","Proposer",5,5,"CornflowerBlue","f","accept",5,503
"572","id0022",1,24,0,0,"human","Proposer",9,1,"CornflowerBlue","j","reject",0,635
"573","id0023",0,1,1,0,"practice","Practice",0,10,"black","f","accept",10,10988
"574","id0023",0,2,1,0,"practice","Practice",2,8,"black","f","accept",8,2791
"575","id0023",1,1,0,0,"human","None",5,5,"Orange","f","accept",5,5607
"576","id0023",1,2,0,0,"AI","None",6,4,"CornflowerBlue","j","reject",0,3789
"577","id0023",1,3,0,0,"AI","None",9,1,"CornflowerBlue","j","reject",0,2239
"578","id0023",1,4,0,0,"AI","None",5,5,"CornflowerBlue","f","accept",5,3892
"579","id0023",1,5,0,1,"AI","None",7,3,"CornflowerBlue","j","reject",0,3012
"580","id0023",1,6,0,0,"human","None",4,6,"Orange","f","accept",6,2782
"581","id0023",1,7,0,0,"human","None",8,2,"Orange","j","reject",0,2422
"582","id0023",1,8,0,0,"AI","None",6,4,"CornflowerBlue","j","reject",0,1519
"583","id0023",1,9,0,0,"human","None",4,6,"Orange","f","accept",6,2563
"584","id0023",1,10,0,0,"AI","None",9,1,"CornflowerBlue","f","accept",1,1341
"585","id0023",1,11,0,0,"human","None",9,1,"Orange","j","reject",0,705
"586","id0023",1,12,0,0,"human","None",6,4,"Orange","j","reject",0,3157
"587","id0023",1,13,0,0,"AI","None",4,6,"CornflowerBlue","f","accept",6,4689
"588","id0023",1,14,0,0,"AI","None",4,6,"CornflowerBlue","f","accept",6,1989
"589","id0023",1,15,0,0,"human","None",5,5,"Orange","f","accept",5,746
"590","id0023",1,16,0,0,"AI","None",5,5,"CornflowerBlue","f","accept",5,694
"591","id0023",1,17,0,0,"human","None",7,3,"Orange","j","reject",0,675
"592","id0023",1,18,0,0,"AI","None",7,3,"CornflowerBlue","j","reject",0,1537
"593","id0023",1,19,0,0,"human","None",6,4,"Orange","j","reject",0,1136
"594","id0023",1,20,0,0,"AI","None",8,2,"CornflowerBlue","j","reject",0,596
"595","id0023",1,21,0,0,"human","None",7,3,"Orange","j","reject",0,678
"596","id0023",1,22,0,0,"human","None",9,1,"Orange","j","reject",0,476
"597","id0023",1,23,0,0,"human","None",8,2,"Orange","j","reject",0,493
"598","id0023",1,24,0,0,"AI","None",8,2,"CornflowerBlue","j","reject",0,435
"599","id0024",0,1,1,0,"practice","Practice",5,5,"black","f","accept",5,1689
"600","id0024",0,2,1,0,"practice","Practice",7,3,"black","j","reject",0,862
"601","id0024",1,1,0,0,"human","None",4,6,"CornflowerBlue","f","accept",6,779
"602","id0024",1,2,0,0,"AI","None",5,5,"Orange","f","accept",5,549
"603","id0024",1,3,0,0,"AI","None",7,3,"Orange","j","reject",0,447
"604","id0024",1,4,0,0,"human","None",4,6,"CornflowerBlue","f","accept",6,440
"605","id0024",1,5,0,0,"AI","None",7,3,"Orange","j","reject",0,400
"606","id0024",1,6,0,0,"AI","None",5,5,"Orange","f","accept",5,359
"607","id0024",1,7,0,0,"human","None",6,4,"CornflowerBlue","f","accept",4,2384
"608","id0024",1,8,0,0,"human","None",6,4,"CornflowerBlue","f","accept",4,404
"609","id0024",1,9,0,0,"human","None",8,2,"CornflowerBlue","j","reject",0,400
"610","id0024",1,10,0,0,"human","None",5,5,"CornflowerBlue","f","accept",5,444
"611","id0024",1,11,0,0,"AI","None",4,6,"Orange","f","accept",6,413
"612","id0024",1,12,0,0,"human","None",5,5,"CornflowerBlue","f","accept",5,353
"613","id0024",1,13,0,0,"AI","None",9,1,"Orange","j","reject",0,230
"614","id0024",1,14,0,0,"AI","None",8,2,"Orange","j","reject",0,345
"615","id0024",1,15,0,0,"human","None",8,2,"CornflowerBlue","j","reject",0,325
"616","id0024",1,16,0,0,"AI","None",6,4,"Orange","f","accept",4,391
"617","id0024",1,17,0,0,"human","None",9,1,"CornflowerBlue","j","reject",0,392
"618","id0024",1,18,0,0,"AI","None",9,1,"Orange","j","reject",0,433
"619","id0024",1,19,0,1,"human","None",7,3,"CornflowerBlue","j","reject",0,319
"620","id0024",1,20,0,0,"human","None",9,1,"CornflowerBlue","j","reject",0,390
"621","id0024",1,21,0,0,"AI","None",8,2,"Orange","j","reject",0,355
"622","id0024",1,22,0,0,"AI","None",4,6,"Orange","f","accept",6,392
"623","id0024",1,23,0,0,"AI","None",6,4,"Orange","f","accept",4,514
"624","id0024",1,24,0,0,"human","None",7,3,"CornflowerBlue","j","reject",0,396
"625","id0025",0,1,1,0,"practice","Practice",3,7,"black","f","accept",7,1429
"626","id0025",0,2,1,0,"practice","Practice",9,1,"black","j","reject",0,1485
"627","id0025",1,1,0,0,"human","None",7,3,"Orange","f","accept",3,495
"628","id0025",1,2,0,1,"AI","None",9,1,"CornflowerBlue","j","reject",0,259
"629","id0025",1,3,0,0,"human","None",7,3,"Orange","f","accept",3,47
"630","id0025",1,4,0,0,"AI","None",5,5,"CornflowerBlue","f","accept",5,262
"631","id0025",1,5,0,0,"human","None",6,4,"Orange","f","accept",4,401
"632","id0025",1,6,0,0,"AI","None",9,1,"CornflowerBlue","j","reject",0,392
"633","id0025",1,7,0,0,"AI","None",4,6,"CornflowerBlue","f","accept",6,264
"634","id0025",1,8,0,0,"AI","None",7,3,"CornflowerBlue","f","accept",3,1101
"635","id0025",1,9,0,0,"human","None",4,6,"Orange","f","accept",6,240
"636","id0025",1,10,0,0,"human","None",9,1,"Orange","j","reject",0,585
"637","id0025",1,11,0,0,"AI","None",6,4,"CornflowerBlue","f","accept",4,313
"638","id0025",1,12,0,0,"human","None",5,5,"Orange","f","accept",5,319
"639","id0025",1,13,0,0,"AI","None",4,6,"CornflowerBlue","f","accept",6,1688
"640","id0025",1,14,0,0,"human","None",9,1,"Orange","j","reject",0,394
"641","id0025",1,15,0,0,"human","None",5,5,"Orange","f","accept",5,282
"642","id0025",1,16,0,0,"AI","None",8,2,"CornflowerBlue","j","reject",0,722
"643","id0025",1,17,0,0,"human","None",4,6,"Orange","f","accept",6,239
"644","id0025",1,18,0,0,"AI","None",5,5,"CornflowerBlue","f","accept",5,383
"645","id0025",1,19,0,0,"AI","None",7,3,"CornflowerBlue","f","accept",3,247
"646","id0025",1,20,0,0,"AI","None",8,2,"CornflowerBlue","j","reject",0,298
"647","id0025",1,21,0,0,"AI","None",6,4,"CornflowerBlue","f","accept",4,277
"648","id0025",1,22,0,0,"human","None",8,2,"Orange","j","reject",0,314
"649","id0025",1,23,0,0,"human","None",6,4,"Orange","f","accept",4,1488
"650","id0025",1,24,0,0,"human","None",8,2,"Orange","j","reject",0,260
"651","id0026",0,1,1,0,"practice","Practice",2,8,"black","j","reject",0,6705
"652","id0026",0,2,1,0,"practice","Practice",2,8,"black","j","reject",0,1676
"653","id0026",1,1,0,0,"AI","Proposer",6,4,"CornflowerBlue","f","accept",4,1541
"654","id0026",1,2,0,0,"human","Proposer",4,6,"Orange","f","accept",6,922
"655","id0026",1,3,0,0,"AI","Proposer",8,2,"CornflowerBlue","j","reject",0,201
"656","id0026",1,4,0,0,"human","Proposer",7,3,"Orange","j","reject",0,720
"657","id0026",1,5,0,0,"AI","Proposer",5,5,"CornflowerBlue","f","accept",5,492
"658","id0026",1,6,0,0,"AI","Proposer",9,1,"CornflowerBlue","j","reject",0,375
"659","id0026",1,7,0,0,"human","Proposer",9,1,"Orange","j","reject",0,425
"660","id0026",1,8,0,0,"human","Proposer",6,4,"Orange","f","accept",4,95
"661","id0026",1,9,0,0,"human","Proposer",8,2,"Orange","j","reject",0,533
"662","id0026",1,10,0,0,"AI","Proposer",5,5,"CornflowerBlue","f","accept",5,515
"663","id0026",1,11,0,0,"AI","Proposer",7,3,"CornflowerBlue","f","accept",3,2154
"664","id0026",1,12,0,0,"human","Proposer",4,6,"Orange","f","accept",6,703
"665","id0026",1,13,0,0,"human","Proposer",5,5,"Orange","f","accept",5,432
"666","id0026",1,14,0,0,"AI","Proposer",8,2,"CornflowerBlue","j","reject",0,326
"667","id0026",1,15,0,0,"human","Proposer",5,5,"Orange","f","accept",5,322
"668","id0026",1,16,0,0,"AI","Proposer",6,4,"CornflowerBlue","f","accept",4,510
"669","id0026",1,17,0,0,"human","Proposer",8,2,"Orange","j","reject",0,549
"670","id0026",1,18,0,0,"human","Proposer",9,1,"Orange","j","reject",0,549
"671","id0026",1,19,0,0,"human","Proposer",7,3,"Orange","f","accept",3,446
"672","id0026",1,20,0,0,"human","Proposer",6,4,"Orange","f","accept",4,507
"673","id0026",1,21,0,0,"AI","Proposer",4,6,"CornflowerBlue","f","accept",6,530
"674","id0026",1,22,0,0,"AI","Proposer",9,1,"CornflowerBlue","j","reject",0,567
"675","id0026",1,23,0,0,"AI","Proposer",4,6,"CornflowerBlue","f","accept",6,388
"676","id0026",1,24,0,1,"AI","Proposer",7,3,"CornflowerBlue","f","accept",3,364
"677","id0027",0,1,1,0,"practice","Practice",0,10,"black","f","accept",10,1279
"678","id0027",0,2,1,0,"practice","Practice",9,1,"black","j","reject",0,319
"679","id0027",1,1,0,0,"AI","None",8,2,"Orange","j","reject",0,537
"680","id0027",1,2,0,0,"human","None",6,4,"CornflowerBlue","j","reject",0,314
"681","id0027",1,3,0,0,"AI","None",6,4,"Orange","j","reject",0,274
"682","id0027",1,4,0,0,"human","None",7,3,"CornflowerBlue","j","reject",0,243
"683","id0027",1,5,0,0,"human","None",7,3,"CornflowerBlue","j","reject",0,273
"684","id0027",1,6,0,0,"human","None",8,2,"CornflowerBlue","j","reject",0,257
"685","id0027",1,7,0,0,"AI","None",4,6,"Orange","f","accept",6,301
"686","id0027",1,8,0,0,"human","None",5,5,"CornflowerBlue","f","accept",5,195
"687","id0027",1,9,0,0,"AI","None",9,1,"Orange","j","reject",0,283
"688","id0027",1,10,0,0,"AI","None",8,2,"Orange","j","reject",0,213
"689","id0027",1,11,0,0,"AI","None",5,5,"Orange","f","accept",5,330
"690","id0027",1,12,0,1,"AI","None",7,3,"Orange","j","reject",0,259
"691","id0027",1,13,0,0,"human","None",5,5,"CornflowerBlue","f","accept",5,278
"692","id0027",1,14,0,0,"AI","None",4,6,"Orange","f","accept",6,333
"693","id0027",1,15,0,0,"human","None",4,6,"CornflowerBlue","f","accept",6,302
"694","id0027",1,16,0,0,"AI","None",5,5,"Orange","f","accept",5,203
"695","id0027",1,17,0,0,"AI","None",9,1,"Orange","j","reject",0,344
"696","id0027",1,18,0,0,"human","None",4,6,"CornflowerBlue","f","accept",6,1354
"697","id0027",1,19,0,0,"human","None",8,2,"CornflowerBlue","j","reject",0,434
"698","id0027",1,20,0,0,"human","None",9,1,"CornflowerBlue","j","reject",0,667
"699","id0027",1,21,0,0,"human","None",9,1,"CornflowerBlue","j","reject",0,465
"700","id0027",1,22,0,0,"AI","None",7,3,"Orange","j","reject",0,1598
"701","id0027",1,23,0,0,"human","None",6,4,"CornflowerBlue","j","reject",0,333
"702","id0027",1,24,0,0,"AI","None",6,4,"Orange","j","reject",0,584
"703","id0028",0,1,1,0,"practice","Practice",3,7,"black","f","accept",7,7177
"704","id0028",0,2,1,0,"practice","Practice",1,9,"black","f","accept",9,995
"705","id0028",1,1,0,0,"AI","None",9,1,"Orange","f","accept",1,954
"706","id0028",1,2,0,1,"human","None",5,5,"CornflowerBlue","f","accept",5,62
"707","id0028",1,3,0,0,"human","None",7,3,"CornflowerBlue","f","accept",3,900
"708","id0028",1,4,0,0,"AI","None",5,5,"Orange","f","accept",5,656
"709","id0028",1,5,0,0,"AI","None",8,2,"Orange","f","accept",2,1492
"710","id0028",1,6,0,0,"human","None",7,3,"CornflowerBlue","f","accept",3,19
"711","id0028",1,7,0,0,"AI","None",4,6,"Orange","f","accept",6,638
"712","id0028",1,8,0,0,"human","None",9,1,"CornflowerBlue","j","reject",0,504
"713","id0028",1,9,0,0,"AI","None",7,3,"Orange","f","accept",3,632
"714","id0028",1,10,0,0,"human","None",6,4,"CornflowerBlue","j","reject",0,2984
"715","id0028",1,11,0,0,"human","None",8,2,"CornflowerBlue","j","reject",0,538
"716","id0028",1,12,0,0,"human","None",4,6,"CornflowerBlue","f","accept",6,478
"717","id0028",1,13,0,0,"human","None",8,2,"CornflowerBlue","j","reject",0,856
"718","id0028",1,14,0,0,"human","None",5,5,"CornflowerBlue","f","accept",5,386
"719","id0028",1,15,0,0,"AI","None",7,3,"Orange","j","reject",0,713
"720","id0028",1,16,0,0,"AI","None",9,1,"Orange","j","reject",0,374
"721","id0028",1,17,0,0,"AI","None",5,5,"Orange","f","accept",5,446
"722","id0028",1,18,0,0,"AI","None",6,4,"Orange","f","accept",4,609
"723","id0028",1,19,0,0,"AI","None",8,2,"Orange","j","reject",0,677
"724","id0028",1,20,0,0,"human","None",9,1,"CornflowerBlue","j","reject",0,430
"725","id0028",1,21,0,0,"AI","None",4,6,"Orange","f","accept",6,486
"726","id0028",1,22,0,0,"human","None",4,6,"CornflowerBlue","f","accept",6,393
"727","id0028",1,23,0,0,"AI","None",6,4,"Orange","f","accept",4,202
"728","id0028",1,24,0,0,"human","None",6,4,"CornflowerBlue","f","accept",4,629
"729","id0029",0,1,1,0,"practice","Practice",4,6,"black","f","accept",6,1941
"730","id0029",0,2,1,0,"practice","Practice",9,1,"black","j","reject",0,1469
"731","id0029",1,1,0,0,"human","None",6,4,"CornflowerBlue","f","accept",4,2600
"732","id0029",1,2,0,0,"AI","None",9,1,"Orange","j","reject",0,267
"733","id0029",1,3,0,0,"human","None",6,4,"CornflowerBlue","f","accept",4,910
"734","id0029",1,4,0,0,"AI","None",7,3,"Orange","j","reject",0,1500
"735","id0029",1,5,0,0,"human","None",7,3,"CornflowerBlue","f","accept",3,1012
"736","id0029",1,6,0,0,"AI","None",6,4,"Orange","f","accept",4,829
"737","id0029",1,7,0,0,"human","None",4,6,"CornflowerBlue","f","accept",6,731
"738","id0029",1,8,0,1,"AI","None",6,4,"Orange","f","accept",4,655
"739","id0029",1,9,0,0,"AI","None",5,5,"Orange","f","accept",5,560
"740","id0029",1,10,0,0,"AI","None",9,1,"Orange","j","reject",0,680
"741","id0029",1,11,0,0,"AI","None",8,2,"Orange","j","reject",0,531
"742","id0029",1,12,0,0,"AI","None",4,6,"Orange","f","accept",6,488
"743","id0029",1,13,0,0,"AI","None",5,5,"Orange","f","accept",5,464
"744","id0029",1,14,0,0,"human","None",4,6,"CornflowerBlue","f","accept",6,623
"745","id0029",1,15,0,0,"human","None",9,1,"CornflowerBlue","j","reject",0,1338
"746","id0029",1,16,0,0,"human","None",8,2,"CornflowerBlue","j","reject",0,2398
"747","id0029",1,17,0,0,"AI","None",4,6,"Orange","f","accept",6,531
"748","id0029",1,18,0,0,"human","None",5,5,"CornflowerBlue","f","accept",5,527
"749","id0029",1,19,0,0,"AI","None",8,2,"Orange","j","reject",0,449
"750","id0029",1,20,0,0,"human","None",9,1,"CornflowerBlue","j","reject",0,861
"751","id0029",1,21,0,0,"AI","None",7,3,"Orange","j","reject",0,1095
"752","id0029",1,22,0,0,"human","None",5,5,"CornflowerBlue","f","accept",5,462
"753","id0029",1,23,0,0,"human","None",8,2,"CornflowerBlue","j","reject",0,394
"754","id0029",1,24,0,0,"human","None",7,3,"CornflowerBlue","j","reject",0,378
"755","id0030",0,1,1,0,"practice","Practice",5,5,"black","f","accept",5,5935
"756","id0030",0,2,1,0,"practice","Practice",3,7,"black","j","reject",0,2240
"757","id0030",1,1,0,0,"AI","Proposer",6,4,"Orange","j","reject",0,1204
"758","id0030",1,2,0,0,"human","Proposer",9,1,"CornflowerBlue","j","reject",0,779
"759","id0030",1,3,0,1,"AI","Proposer",4,6,"Orange","j","reject",0,1052
"760","id0030",1,4,0,0,"AI","Proposer",6,4,"Orange","j","reject",0,60
"761","id0030",1,5,0,0,"AI","Proposer",9,1,"Orange","j","reject",0,408
"762","id0030",1,6,0,0,"human","Proposer",9,1,"CornflowerBlue","j","reject",0,595
"763","id0030",1,7,0,0,"human","Proposer",5,5,"CornflowerBlue","f","accept",5,524
"764","id0030",1,8,0,0,"human","Proposer",8,2,"CornflowerBlue","j","reject",0,433
"765","id0030",1,9,0,0,"AI","Proposer",8,2,"Orange","j","reject",0,606
"766","id0030",1,10,0,0,"human","Proposer",7,3,"CornflowerBlue","j","reject",0,472
"767","id0030",1,11,0,0,"human","Proposer",8,2,"CornflowerBlue","j","reject",0,585
"768","id0030",1,12,0,0,"human","Proposer",4,6,"CornflowerBlue","f","accept",6,2673
"769","id0030",1,13,0,0,"AI","Proposer",8,2,"Orange","j","reject",0,903
"770","id0030",1,14,0,0,"human","Proposer",7,3,"CornflowerBlue","j","reject",0,499
"771","id0030",1,15,0,0,"AI","Proposer",4,6,"Orange","j","reject",0,758
"772","id0030",1,16,0,0,"AI","Proposer",7,3,"Orange","j","reject",0,730
"773","id0030",1,17,0,0,"human","Proposer",6,4,"CornflowerBlue","f","accept",4,581
"774","id0030",1,18,0,0,"AI","Proposer",5,5,"Orange","f","accept",5,780
"775","id0030",1,19,0,0,"AI","Proposer",5,5,"Orange","f","accept",5,376
"776","id0030",1,20,0,0,"AI","Proposer",9,1,"Orange","j","reject",0,429
"777","id0030",1,21,0,0,"human","Proposer",6,4,"CornflowerBlue","f","accept",4,440
"778","id0030",1,22,0,0,"human","Proposer",5,5,"CornflowerBlue","f","accept",5,524
"779","id0030",1,23,0,0,"human","Proposer",4,6,"CornflowerBlue","f","accept",6,712
"780","id0030",1,24,0,0,"AI","Proposer",7,3,"Orange","j","reject",0,2240
"781","id0031",0,1,1,0,"practice","Practice",7,3,"black","f","accept",3,5474
"782","id0031",0,2,1,0,"practice","Practice",9,1,"black","f","accept",1,969
"783","id0031",1,1,0,0,"AI","Proposer",4,6,"Orange","f","accept",6,2804
"784","id0031",1,2,0,0,"human","Proposer",6,4,"CornflowerBlue","f","accept",4,595
"785","id0031",1,3,0,0,"human","Proposer",9,1,"CornflowerBlue","f","accept",1,552
"786","id0031",1,4,0,0,"AI","Proposer",4,6,"Orange","j","reject",0,28
"787","id0031",1,5,0,0,"AI","Proposer",8,2,"Orange","f","accept",2,62
"788","id0031",1,6,0,1,"AI","Proposer",6,4,"Orange","f","accept",4,445
"789","id0031",1,7,0,0,"human","Proposer",4,6,"CornflowerBlue","j","reject",0,508
"790","id0031",1,8,0,0,"AI","Proposer",6,4,"Orange","f","accept",4,60
"791","id0031",1,9,0,0,"AI","Proposer",8,2,"Orange","f","accept",2,484
"792","id0031",1,10,0,0,"human","Proposer",7,3,"CornflowerBlue","f","accept",3,433
"793","id0031",1,11,0,0,"AI","Proposer",5,5,"Orange","f","accept",5,495
"794","id0031",1,12,0,0,"AI","Proposer",9,1,"Orange","f","accept",1,66
"795","id0031",1,13,0,0,"AI","Proposer",7,3,"Orange","f","accept",3,447
"796","id0031",1,14,0,0,"human","Proposer",7,3,"CornflowerBlue","f","accept",3,447
"797","id0031",1,15,0,0,"human","Proposer",5,5,"CornflowerBlue","f","accept",5,73
"798","id0031",1,16,0,0,"human","Proposer",5,5,"CornflowerBlue","f","accept",5,432
"799","id0031",1,17,0,0,"human","Proposer",4,6,"CornflowerBlue","j","reject",0,559
"800","id0031",1,18,0,0,"AI","Proposer",9,1,"Orange","f","accept",1,553
"801","id0031",1,19,0,0,"human","Proposer",6,4,"CornflowerBlue","f","accept",4,75
"802","id0031",1,20,0,0,"AI","Proposer",5,5,"Orange","f","accept",5,136
"803","id0031",1,21,0,0,"human","Proposer",8,2,"CornflowerBlue","f","accept",2,440
"804","id0031",1,22,0,0,"AI","Proposer",7,3,"Orange","f","accept",3,44
"805","id0031",1,23,0,0,"human","Proposer",8,2,"CornflowerBlue","f","accept",2,92
"806","id0031",1,24,0,0,"human","Proposer",9,1,"CornflowerBlue","f","accept",1,276
"807","id0032",0,1,1,0,"practice","Practice",5,5,"black","f","accept",5,2501
"808","id0032",0,2,1,0,"practice","Practice",5,5,"black","f","accept",5,1750
"809","id0032",1,1,0,0,"AI","Proposer",6,4,"CornflowerBlue","f","accept",4,4656
"810","id0032",1,2,0,0,"human","Proposer",7,3,"Orange","j","reject",0,1303
"811","id0032",1,3,0,0,"AI","Proposer",9,1,"CornflowerBlue","j","reject",0,1202
"812","id0032",1,4,0,0,"human","Proposer",7,3,"Orange","f","accept",3,1710
"813","id0032",1,5,0,0,"AI","Proposer",4,6,"CornflowerBlue","f","accept",6,419
"814","id0032",1,6,0,0,"AI","Proposer",8,2,"CornflowerBlue","j","reject",0,542
"815","id0032",1,7,0,0,"AI","Proposer",8,2,"CornflowerBlue","j","reject",0,870
"816","id0032",1,8,0,0,"human","Proposer",6,4,"Orange","f","accept",4,554
"817","id0032",1,9,0,0,"human","Proposer",4,6,"Orange","f","accept",6,931
"818","id0032",1,10,0,0,"human","Proposer",8,2,"Orange","j","reject",0,1260
"819","id0032",1,11,0,1,"human","Proposer",9,1,"Orange","j","reject",0,670
"820","id0032",1,12,0,0,"human","Proposer",8,2,"Orange","j","reject",0,1424
"821","id0032",1,13,0,0,"AI","Proposer",5,5,"CornflowerBlue","f","accept",5,1038
"822","id0032",1,14,0,0,"AI","Proposer",4,6,"CornflowerBlue","f","accept",6,962
"823","id0032",1,15,0,0,"AI","Proposer",9,1,"CornflowerBlue","j","reject",0,1043
"824","id0032",1,16,0,0,"AI","Proposer",5,5,"CornflowerBlue","f","accept",5,985
"825","id0032",1,17,0,0,"human","Proposer",9,1,"Orange","f","accept",1,1481
"826","id0032",1,18,0,0,"AI","Proposer",7,3,"CornflowerBlue","j","reject",0,870
"827","id0032",1,19,0,0,"human","Proposer",5,5,"Orange","f","accept",5,871
"828","id0032",1,20,0,0,"human","Proposer",5,5,"Orange","f","accept",5,306
"829","id0032",1,21,0,0,"human","Proposer",6,4,"Orange","f","accept",4,594
"830","id0032",1,22,0,0,"AI","Proposer",6,4,"CornflowerBlue","f","accept",4,565
"831","id0032",1,23,0,0,"human","Proposer",4,6,"Orange","f","accept",6,627
"832","id0032",1,24,0,0,"AI","Proposer",7,3,"CornflowerBlue","j","reject",0,885
"833","id0033",0,1,1,0,"practice","Practice",2,8,"black","f","accept",8,785
"834","id0033",0,2,1,0,"practice","Practice",2,8,"black","f","accept",8,432
"835","id0033",1,1,0,1,"human","Proposer",6,4,"Orange","f","accept",4,1393
"836","id0033",1,2,0,0,"human","Proposer",5,5,"Orange","f","accept",5,700
"837","id0033",1,3,0,0,"AI","Proposer",5,5,"CornflowerBlue","f","accept",5,492
"838","id0033",1,4,0,0,"human","Proposer",9,1,"Orange","j","reject",0,24
"839","id0033",1,5,0,0,"AI","Proposer",7,3,"CornflowerBlue","j","reject",0,1062
"840","id0033",1,6,0,0,"human","Proposer",8,2,"Orange","j","reject",0,368
"841","id0033",1,7,0,0,"human","Proposer",4,6,"Orange","f","accept",6,455
"842","id0033",1,8,0,0,"AI","Proposer",9,1,"CornflowerBlue","j","reject",0,484
"843","id0033",1,9,0,0,"AI","Proposer",9,1,"CornflowerBlue","j","reject",0,510
"844","id0033",1,10,0,0,"AI","Proposer",8,2,"CornflowerBlue","j","reject",0,588
"845","id0033",1,11,0,0,"human","Proposer",8,2,"Orange","j","reject",0,618
"846","id0033",1,12,0,0,"human","Proposer",7,3,"Orange","j","reject",0,6182
"847","id0033",1,13,0,0,"AI","Proposer",5,5,"CornflowerBlue","f","accept",5,888
"848","id0033",1,14,0,0,"human","Proposer",7,3,"Orange","f","accept",3,3221
"849","id0033",1,15,0,0,"human","Proposer",5,5,"Orange","f","accept",5,710
"850","id0033",1,16,0,0,"AI","Proposer",6,4,"CornflowerBlue","f","accept",4,682
"851","id0033",1,17,0,0,"human","Proposer",6,4,"Orange","f","accept",4,409
"852","id0033",1,18,0,0,"human","Proposer",4,6,"Orange","f","accept",6,476
"853","id0033",1,19,0,0,"AI","Proposer",6,4,"CornflowerBlue","f","accept",4,345
"854","id0033",1,20,0,0,"AI","Proposer",7,3,"CornflowerBlue","j","reject",0,1131
"855","id0033",1,21,0,0,"AI","Proposer",8,2,"CornflowerBlue","j","reject",0,822
"856","id0033",1,22,0,0,"human","Proposer",9,1,"Orange","j","reject",0,677
"857","id0033",1,23,0,0,"AI","Proposer",4,6,"CornflowerBlue","f","accept",6,497
"858","id0033",1,24,0,0,"AI","Proposer",4,6,"CornflowerBlue","f","accept",6,672
"859","id0034",0,1,1,0,"practice","Practice",1,9,"black","f","accept",9,3497
"860","id0034",0,2,1,0,"practice","Practice",8,2,"black","f","accept",2,780
"861","id0034",1,1,0,0,"human","Proposer",5,5,"Orange","f","accept",5,14
"862","id0034",1,2,0,0,"human","Proposer",4,6,"Orange","f","accept",6,544
"863","id0034",1,3,0,0,"AI","Proposer",4,6,"CornflowerBlue","f","accept",6,159
"864","id0034",1,4,0,0,"AI","Proposer",5,5,"CornflowerBlue","f","accept",5,324
"865","id0034",1,5,0,0,"AI","Proposer",4,6,"CornflowerBlue","f","accept",6,305
"866","id0034",1,6,0,0,"AI","Proposer",7,3,"CornflowerBlue","f","accept",3,882
"867","id0034",1,7,0,0,"human","Proposer",8,2,"Orange","f","accept",2,2148
"868","id0034",1,8,0,0,"AI","Proposer",8,2,"CornflowerBlue","j","reject",0,1592
"869","id0034",1,9,0,0,"human","Proposer",7,3,"Orange","f","accept",3,639
"870","id0034",1,10,0,0,"AI","Proposer",8,2,"CornflowerBlue","j","reject",0,842
"871","id0034",1,11,0,0,"human","Proposer",9,1,"Orange","j","reject",0,324
"872","id0034",1,12,0,0,"human","Proposer",7,3,"Orange","f","accept",3,281
"873","id0034",1,13,0,0,"human","Proposer",5,5,"Orange","f","accept",5,522
"874","id0034",1,14,0,1,"human","Proposer",8,2,"Orange","j","reject",0,285
"875","id0034",1,15,0,0,"AI","Proposer",5,5,"CornflowerBlue","f","accept",5,258
"876","id0034",1,16,0,0,"human","Proposer",6,4,"Orange","f","accept",4,263
"877","id0034",1,17,0,0,"AI","Proposer",9,1,"CornflowerBlue","j","reject",0,667
"878","id0034",1,18,0,0,"human","Proposer",9,1,"Orange","j","reject",0,526
"879","id0034",1,19,0,0,"AI","Proposer",6,4,"CornflowerBlue","f","accept",4,272
"880","id0034",1,20,0,0,"AI","Proposer",6,4,"CornflowerBlue","f","accept",4,258
"881","id0034",1,21,0,0,"human","Proposer",4,6,"Orange","f","accept",6,239
"882","id0034",1,22,0,0,"AI","Proposer",7,3,"CornflowerBlue","f","accept",3,302
"883","id0034",1,23,0,0,"human","Proposer",6,4,"Orange","f","accept",4,240
"884","id0034",1,24,0,0,"AI","Proposer",9,1,"CornflowerBlue","j","reject",0,289
"885","id0035",0,1,1,0,"practice","Practice",7,3,"black","f","accept",3,2683
"886","id0035",0,2,1,0,"practice","Practice",4,6,"black","f","accept",6,772
"887","id0035",1,1,0,1,"human","None",8,2,"CornflowerBlue","f","accept",2,774
"888","id0035",1,2,0,0,"AI","None",7,3,"Orange","f","accept",3,372
"889","id0035",1,3,0,0,"AI","None",9,1,"Orange","f","accept",1,517
"890","id0035",1,4,0,0,"human","None",5,5,"CornflowerBlue","f","accept",5,292
"891","id0035",1,5,0,0,"AI","None",9,1,"Orange","f","accept",1,668
"892","id0035",1,6,0,0,"human","None",6,4,"CornflowerBlue","f","accept",4,256
"893","id0035",1,7,0,0,"human","None",7,3,"CornflowerBlue","j","reject",0,302
"894","id0035",1,8,0,0,"human","None",4,6,"CornflowerBlue","f","accept",6,756
"895","id0035",1,9,0,0,"AI","None",5,5,"Orange","f","accept",5,389
"896","id0035",1,10,0,0,"human","None",6,4,"CornflowerBlue","f","accept",4,654
"897","id0035",1,11,0,0,"AI","None",6,4,"Orange","f","accept",4,351
"898","id0035",1,12,0,0,"AI","None",7,3,"Orange","f","accept",3,324
"899","id0035",1,13,0,0,"AI","None",4,6,"Orange","f","accept",6,508
"900","id0035",1,14,0,0,"AI","None",5,5,"Orange","f","accept",5,512
"901","id0035",1,15,0,0,"human","None",7,3,"CornflowerBlue","f","accept",3,2508
"902","id0035",1,16,0,0,"human","None",8,2,"CornflowerBlue","f","accept",2,402
"903","id0035",1,17,0,0,"human","None",9,1,"CornflowerBlue","f","accept",1,316
"904","id0035",1,18,0,0,"human","None",4,6,"CornflowerBlue","f","accept",6,5198
"905","id0035",1,19,0,0,"human","None",9,1,"CornflowerBlue","f","accept",1,356
"906","id0035",1,20,0,0,"AI","None",8,2,"Orange","f","accept",2,477
"907","id0035",1,21,0,0,"AI","None",6,4,"Orange","f","accept",4,412
"908","id0035",1,22,0,0,"AI","None",4,6,"Orange","f","accept",6,417
"909","id0035",1,23,0,0,"human","None",5,5,"CornflowerBlue","f","accept",5,675
"910","id0035",1,24,0,0,"AI","None",8,2,"Orange","f","accept",2,326
"911","id0036",0,1,1,0,"practice","Practice",7,3,"black","f","accept",3,833
"912","id0036",0,2,1,0,"practice","Practice",5,5,"black","f","accept",5,870
"913","id0036",1,1,0,0,"AI","None",5,5,"CornflowerBlue","f","accept",5,766
"914","id0036",1,2,0,0,"human","None",4,6,"Orange","f","accept",6,604
"915","id0036",1,3,0,1,"human","None",9,1,"Orange","f","accept",1,1685
"916","id0036",1,4,0,0,"human","None",7,3,"Orange","f","accept",3,411
"917","id0036",1,5,0,0,"AI","None",7,3,"CornflowerBlue","f","accept",3,541
"918","id0036",1,6,0,0,"AI","None",6,4,"CornflowerBlue","f","accept",4,560
"919","id0036",1,7,0,0,"AI","None",4,6,"CornflowerBlue","f","accept",6,410
"920","id0036",1,8,0,0,"human","None",9,1,"Orange","j","reject",0,610
"921","id0036",1,9,0,0,"human","None",6,4,"Orange","f","accept",4,405
"922","id0036",1,10,0,0,"human","None",5,5,"Orange","f","accept",5,354
"923","id0036",1,11,0,0,"AI","None",8,2,"CornflowerBlue","f","accept",2,391
"924","id0036",1,12,0,0,"AI","None",6,4,"CornflowerBlue","f","accept",4,434
"925","id0036",1,13,0,0,"AI","None",8,2,"CornflowerBlue","f","accept",2,431
"926","id0036",1,14,0,0,"human","None",6,4,"Orange","f","accept",4,677
"927","id0036",1,15,0,0,"human","None",8,2,"Orange","f","accept",2,420
"928","id0036",1,16,0,0,"AI","None",4,6,"CornflowerBlue","f","accept",6,378
"929","id0036",1,17,0,0,"human","None",8,2,"Orange","f","accept",2,535
"930","id0036",1,18,0,0,"human","None",4,6,"Orange","f","accept",6,534
"931","id0036",1,19,0,0,"human","None",7,3,"Orange","f","accept",3,712
"932","id0036",1,20,0,0,"AI","None",9,1,"CornflowerBlue","f","accept",1,5178
"933","id0036",1,21,0,0,"AI","None",5,5,"CornflowerBlue","f","accept",5,523
"934","id0036",1,22,0,0,"AI","None",9,1,"CornflowerBlue","f","accept",1,2727
"935","id0036",1,23,0,0,"human","None",5,5,"Orange","f","accept",5,494
"936","id0036",1,24,0,0,"AI","None",7,3,"CornflowerBlue","f","accept",3,647
"937","id0037",0,1,1,0,"practice","Practice",5,5,"black","f","accept",5,3141
"938","id0037",0,2,1,0,"practice","Practice",7,3,"black","f","accept",3,1518
"939","id0037",1,1,0,0,"human","None",8,2,"Orange","f","accept",2,449
"940","id0037",1,2,0,1,"human","None",9,1,"Orange","f","accept",1,378
"941","id0037",1,3,0,0,"AI","None",5,5,"CornflowerBlue","f","accept",5,571
"942","id0037",1,4,0,0,"AI","None",6,4,"CornflowerBlue","f","accept",4,331
"943","id0037",1,5,0,0,"AI","None",8,2,"CornflowerBlue","f","accept",2,329
"944","id0037",1,6,0,0,"human","None",5,5,"Orange","f","accept",5,277
"945","id0037",1,7,0,0,"human","None",6,4,"Orange","f","accept",4,324
"946","id0037",1,8,0,0,"AI","None",7,3,"CornflowerBlue","f","accept",3,254
"947","id0037",1,9,0,0,"human","None",6,4,"Orange","f","accept",4,385
"948","id0037",1,10,0,0,"human","None",7,3,"Orange","f","accept",3,308
"949","id0037",1,11,0,0,"AI","None",4,6,"CornflowerBlue","f","accept",6,298
"950","id0037",1,12,0,0,"AI","None",7,3,"CornflowerBlue","f","accept",3,229
"951","id0037",1,13,0,0,"human","None",9,1,"Orange","f","accept",1,342
"952","id0037",1,14,0,0,"AI","None",6,4,"CornflowerBlue","f","accept",4,366
"953","id0037",1,15,0,0,"human","None",7,3,"Orange","f","accept",3,344
"954","id0037",1,16,0,0,"AI","None",9,1,"CornflowerBlue","f","accept",1,326
"955","id0037",1,17,0,0,"AI","None",5,5,"CornflowerBlue","f","accept",5,340
"956","id0037",1,18,0,0,"human","None",5,5,"Orange","f","accept",5,355
"957","id0037",1,19,0,0,"AI","None",8,2,"CornflowerBlue","f","accept",2,295
"958","id0037",1,20,0,0,"AI","None",9,1,"CornflowerBlue","f","accept",1,586
"959","id0037",1,21,0,0,"human","None",8,2,"Orange","f","accept",2,469
"960","id0037",1,22,0,0,"human","None",4,6,"Orange","f","accept",6,490
"961","id0037",1,23,0,0,"AI","None",4,6,"CornflowerBlue","f","accept",6,617
"962","id0037",1,24,0,0,"human","None",4,6,"Orange","f","accept",6,467
"963","id0038",0,1,1,0,"practice","Practice",8,2,"black","j","reject",0,2520
"964","id0038",0,2,1,0,"practice","Practice",6,4,"black","f","accept",4,750
"965","id0038",1,1,0,0,"AI","Proposer",4,6,"CornflowerBlue","f","accept",6,3180
"966","id0038",1,2,0,0,"AI","Proposer",5,5,"CornflowerBlue","f","accept",5,685
"967","id0038",1,3,0,1,"AI","Proposer",6,4,"CornflowerBlue","f","accept",4,739
"968","id0038",1,4,0,0,"human","Proposer",4,6,"Orange","f","accept",6,698
"969","id0038",1,5,0,0,"human","Proposer",4,6,"Orange","f","accept",6,545
"970","id0038",1,6,0,0,"AI","Proposer",6,4,"CornflowerBlue","f","accept",4,683
"971","id0038",1,7,0,0,"human","Proposer",5,5,"Orange","f","accept",5,485
"972","id0038",1,8,0,0,"AI","Proposer",8,2,"CornflowerBlue","j","reject",0,872
"973","id0038",1,9,0,0,"AI","Proposer",8,2,"CornflowerBlue","j","reject",0,1296
"974","id0038",1,10,0,0,"human","Proposer",6,4,"Orange","f","accept",4,798
"975","id0038",1,11,0,0,"human","Proposer",7,3,"Orange","j","reject",0,1284
"976","id0038",1,12,0,0,"AI","Proposer",9,1,"CornflowerBlue","j","reject",0,913
"977","id0038",1,13,0,0,"AI","Proposer",7,3,"CornflowerBlue","j","reject",0,917
"978","id0038",1,14,0,0,"human","Proposer",5,5,"Orange","f","accept",5,709
"979","id0038",1,15,0,0,"human","Proposer",8,2,"Orange","j","reject",0,734
"980","id0038",1,16,0,0,"human","Proposer",9,1,"Orange","j","reject",0,606
"981","id0038",1,17,0,0,"AI","Proposer",5,5,"CornflowerBlue","f","accept",5,347
"982","id0038",1,18,0,0,"human","Proposer",6,4,"Orange","f","accept",4,498
"983","id0038",1,19,0,0,"human","Proposer",7,3,"Orange","j","reject",0,684
"984","id0038",1,20,0,0,"AI","Proposer",9,1,"CornflowerBlue","j","reject",0,752
"985","id0038",1,21,0,0,"AI","Proposer",7,3,"CornflowerBlue","j","reject",0,1986
"986","id0038",1,22,0,0,"human","Proposer",8,2,"Orange","j","reject",0,645
"987","id0038",1,23,0,0,"human","Proposer",9,1,"Orange","j","reject",0,576
"988","id0038",1,24,0,0,"AI","Proposer",4,6,"CornflowerBlue","f","accept",6,680
"989","id0039",0,1,1,0,"practice","Practice",8,2,"black","j","reject",0,6856
"990","id0039",0,2,1,0,"practice","Practice",2,8,"black","j","reject",0,3255
"991","id0039",1,1,0,0,"human","None",8,2,"CornflowerBlue","j","reject",0,1846
"992","id0039",1,2,0,0,"AI","None",6,4,"Orange","f","accept",4,1062
"993","id0039",1,3,0,0,"human","None",9,1,"CornflowerBlue","j","reject",0,922
"994","id0039",1,4,0,0,"human","None",8,2,"CornflowerBlue","j","reject",0,574
"995","id0039",1,5,0,0,"AI","None",5,5,"Orange","f","accept",5,512
"996","id0039",1,6,0,0,"human","None",9,1,"CornflowerBlue","j","reject",0,784
"997","id0039",1,7,0,0,"AI","None",6,4,"Orange","f","accept",4,1465
"998","id0039",1,8,0,0,"AI","None",7,3,"Orange","f","accept",3,5438
"999","id0039",1,9,0,0,"human","None",5,5,"CornflowerBlue","f","accept",5,1448
"1000","id0039",1,10,0,0,"AI","None",7,3,"Orange","j","reject",0,1595
"1001","id0039",1,11,0,0,"AI","None",4,6,"Orange","f","accept",6,1603
"1002","id0039",1,12,0,0,"AI","None",8,2,"Orange","j","reject",0,537
"1003","id0039",1,13,0,0,"human","None",5,5,"CornflowerBlue","f","accept",5,474
"1004","id0039",1,14,0,1,"human","None",4,6,"CornflowerBlue","f","accept",6,2005
"1005","id0039",1,15,0,0,"human","None",7,3,"CornflowerBlue","j","reject",0,1623
"1006","id0039",1,16,0,0,"AI","None",9,1,"Orange","j","reject",0,820
"1007","id0039",1,17,0,0,"human","None",6,4,"CornflowerBlue","f","accept",4,1710
"1008","id0039",1,18,0,0,"AI","None",8,2,"Orange","j","reject",0,1165
"1009","id0039",1,19,0,0,"AI","None",9,1,"Orange","j","reject",0,1246
"1010","id0039",1,20,0,0,"human","None",6,4,"CornflowerBlue","f","accept",4,1871
"1011","id0039",1,21,0,0,"AI","None",4,6,"Orange","f","accept",6,1522
"1012","id0039",1,22,0,0,"human","None",4,6,"CornflowerBlue","f","accept",6,1515
"1013","id0039",1,23,0,0,"human","None",7,3,"CornflowerBlue","j","reject",0,2108
"1014","id0039",1,24,0,0,"AI","None",5,5,"Orange","f","accept",5,1019
"1015","id0040",0,1,1,0,"practice","Practice",9,1,"black","f","accept",1,1408
"1016","id0040",0,2,1,0,"practice","Practice",1,9,"black","f","accept",9,82
"1017","id0040",1,1,0,0,"AI","None",9,1,"Orange","j","reject",0,1
"1018","id0040",1,2,0,0,"human","None",7,3,"CornflowerBlue","j","reject",0,1339
"1019","id0040",1,3,0,0,"human","None",6,4,"CornflowerBlue","f","accept",4,1437
"1020","id0040",1,4,0,0,"AI","None",8,2,"Orange","j","reject",0,239
"1021","id0040",1,5,0,0,"AI","None",7,3,"Orange","j","reject",0,960
"1022","id0040",1,6,0,1,"AI","None",6,4,"Orange","f","accept",4,747
"1023","id0040",1,7,0,0,"AI","None",8,2,"Orange","j","reject",0,603
"1024","id0040",1,8,0,0,"AI","None",5,5,"Orange","f","accept",5,294
"1025","id0040",1,9,0,0,"AI","None",5,5,"Orange","f","accept",5,555
"1026","id0040",1,10,0,0,"human","None",9,1,"CornflowerBlue","j","reject",0,584
"1027","id0040",1,11,0,0,"human","None",4,6,"CornflowerBlue","f","accept",6,534
"1028","id0040",1,12,0,0,"AI","None",4,6,"Orange","f","accept",6,580
"1029","id0040",1,13,0,0,"AI","None",4,6,"Orange","f","accept",6,34
"1030","id0040",1,14,0,0,"human","None",4,6,"CornflowerBlue","f","accept",6,508
"1031","id0040",1,15,0,0,"human","None",5,5,"CornflowerBlue","f","accept",5,362
"1032","id0040",1,16,0,0,"AI","None",7,3,"Orange","f","accept",3,118
"1033","id0040",1,17,0,0,"human","None",9,1,"CornflowerBlue","f","accept",1,417
"1034","id0040",1,18,0,0,"human","None",8,2,"CornflowerBlue","f","accept",2,449
"1035","id0040",1,19,0,0,"human","None",6,4,"CornflowerBlue","f","accept",4,368
"1036","id0040",1,20,0,0,"human","None",7,3,"CornflowerBlue","f","accept",3,370
"1037","id0040",1,21,0,0,"human","None",8,2,"CornflowerBlue","f","accept",2,477
"1038","id0040",1,22,0,0,"human","None",5,5,"CornflowerBlue","f","accept",5,447
"1039","id0040",1,23,0,0,"AI","None",6,4,"Orange","f","accept",4,535
"1040","id0040",1,24,0,0,"AI","None",9,1,"Orange","f","accept",1,680
"1041","id0041",0,1,1,0,"practice","Practice",8,2,"black","j","reject",0,1370
"1042","id0041",0,2,1,0,"practice","Practice",0,10,"black","f","accept",10,1111
"1043","id0041",1,1,0,0,"AI","None",4,6,"Orange","f","accept",6,641
"1044","id0041",1,2,0,0,"AI","None",6,4,"Orange","f","accept",4,2000
"1045","id0041",1,3,0,0,"human","None",6,4,"CornflowerBlue","f","accept",4,2700
"1046","id0041",1,4,0,0,"human","None",5,5,"CornflowerBlue","f","accept",5,459
"1047","id0041",1,5,0,0,"human","None",6,4,"CornflowerBlue","f","accept",4,386
"1048","id0041",1,6,0,0,"AI","None",7,3,"Orange","j","reject",0,541
"1049","id0041",1,7,0,0,"AI","None",5,5,"Orange","f","accept",5,291
"1050","id0041",1,8,0,0,"human","None",5,5,"CornflowerBlue","f","accept",5,279
"1051","id0041",1,9,0,0,"human","None",4,6,"CornflowerBlue","f","accept",6,398
"1052","id0041",1,10,0,0,"human","None",7,3,"CornflowerBlue","j","reject",0,419
"1053","id0041",1,11,0,0,"AI","None",4,6,"Orange","f","accept",6,362
"1054","id0041",1,12,0,0,"human","None",8,2,"CornflowerBlue","j","reject",0,340
"1055","id0041",1,13,0,0,"human","None",9,1,"CornflowerBlue","j","reject",0,437
"1056","id0041",1,14,0,0,"AI","None",9,1,"Orange","j","reject",0,290
"1057","id0041",1,15,0,0,"human","None",4,6,"CornflowerBlue","f","accept",6,346
"1058","id0041",1,16,0,0,"AI","None",9,1,"Orange","j","reject",0,313
"1059","id0041",1,17,0,0,"AI","None",8,2,"Orange","j","reject",0,351
"1060","id0041",1,18,0,1,"AI","None",8,2,"Orange","j","reject",0,95
"1061","id0041",1,19,0,0,"AI","None",6,4,"Orange","f","accept",4,394
"1062","id0041",1,20,0,0,"human","None",8,2,"CornflowerBlue","j","reject",0,6401
"1063","id0041",1,21,0,0,"human","None",7,3,"CornflowerBlue","j","reject",0,313
"1064","id0041",1,22,0,0,"AI","None",7,3,"Orange","j","reject",0,503
"1065","id0041",1,23,0,0,"human","None",9,1,"CornflowerBlue","j","reject",0,135
"1066","id0041",1,24,0,0,"AI","None",5,5,"Orange","f","accept",5,250
"1067","id0042",0,1,1,0,"practice","Practice",5,5,"black","f","accept",5,1988
"1068","id0042",0,2,1,0,"practice","Practice",4,6,"black","f","accept",6,424
"1069","id0042",1,1,0,0,"AI","Proposer",9,1,"Orange","j","reject",0,892
"1070","id0042",1,2,0,0,"human","Proposer",7,3,"CornflowerBlue","j","reject",0,1972
"1071","id0042",1,3,0,0,"human","Proposer",8,2,"CornflowerBlue","j","reject",0,365
"1072","id0042",1,4,0,0,"human","Proposer",7,3,"CornflowerBlue","f","accept",3,785
"1073","id0042",1,5,0,0,"AI","Proposer",6,4,"Orange","f","accept",4,354
"1074","id0042",1,6,0,0,"human","Proposer",4,6,"CornflowerBlue","f","accept",6,557
"1075","id0042",1,7,0,0,"AI","Proposer",4,6,"Orange","f","accept",6,434
"1076","id0042",1,8,0,0,"human","Proposer",6,4,"CornflowerBlue","f","accept",4,400
"1077","id0042",1,9,0,0,"human","Proposer",5,5,"CornflowerBlue","f","accept",5,437
"1078","id0042",1,10,0,0,"human","Proposer",5,5,"CornflowerBlue","f","accept",5,429
"1079","id0042",1,11,0,0,"AI","Proposer",7,3,"Orange","f","accept",3,367
"1080","id0042",1,12,0,0,"AI","Proposer",5,5,"Orange","f","accept",5,524
"1081","id0042",1,13,0,0,"human","Proposer",4,6,"CornflowerBlue","f","accept",6,468
"1082","id0042",1,14,0,0,"AI","Proposer",4,6,"Orange","f","accept",6,455
"1083","id0042",1,15,0,0,"AI","Proposer",5,5,"Orange","f","accept",5,359
"1084","id0042",1,16,0,0,"human","Proposer",9,1,"CornflowerBlue","j","reject",0,386
"1085","id0042",1,17,0,0,"human","Proposer",6,4,"CornflowerBlue","f","accept",4,734405
"1086","id0042",1,18,0,0,"AI","Proposer",9,1,"Orange","j","reject",0,399
"1087","id0042",1,19,0,0,"AI","Proposer",8,2,"Orange","j","reject",0,231
"1088","id0042",1,20,0,0,"AI","Proposer",8,2,"Orange","j","reject",0,333
"1089","id0042",1,21,0,1,"AI","Proposer",6,4,"Orange","f","accept",4,429
"1090","id0042",1,22,0,0,"human","Proposer",8,2,"CornflowerBlue","j","reject",0,376
"1091","id0042",1,23,0,0,"human","Proposer",9,1,"CornflowerBlue","j","reject",0,396
"1092","id0042",1,24,0,0,"AI","Proposer",7,3,"Orange","f","accept",3,506
"1093","id0043",0,1,1,0,"practice","Practice",9,1,"black","j","reject",0,1924
"1094","id0043",0,2,1,0,"practice","Practice",4,6,"black","f","accept",6,757
"1095","id0043",1,1,0,0,"AI","None",8,2,"Orange","f","accept",2,1984
"1096","id0043",1,2,0,0,"AI","None",6,4,"Orange","f","accept",4,829
"1097","id0043",1,3,0,0,"AI","None",6,4,"Orange","f","accept",4,986
"1098","id0043",1,4,0,0,"human","None",6,4,"CornflowerBlue","f","accept",4,872
"1099","id0043",1,5,0,0,"AI","None",7,3,"Orange","f","accept",3,736
"1100","id0043",1,6,0,1,"human","None",5,5,"CornflowerBlue","f","accept",5,916
"1101","id0043",1,7,0,0,"human","None",5,5,"CornflowerBlue","f","accept",5,990
"1102","id0043",1,8,0,0,"AI","None",4,6,"Orange","f","accept",6,879
"1103","id0043",1,9,0,0,"human","None",7,3,"CornflowerBlue","f","accept",3,1118
"1104","id0043",1,10,0,0,"human","None",9,1,"CornflowerBlue","j","reject",0,1251
"1105","id0043",1,11,0,0,"AI","None",4,6,"Orange","f","accept",6,1145
"1106","id0043",1,12,0,0,"human","None",4,6,"CornflowerBlue","f","accept",6,837
"1107","id0043",1,13,0,0,"AI","None",8,2,"Orange","f","accept",2,1009
"1108","id0043",1,14,0,0,"human","None",6,4,"CornflowerBlue","f","accept",4,846
"1109","id0043",1,15,0,0,"AI","None",5,5,"Orange","f","accept",5,670
"1110","id0043",1,16,0,0,"human","None",7,3,"CornflowerBlue","f","accept",3,1142
"1111","id0043",1,17,0,0,"human","None",8,2,"CornflowerBlue","f","accept",2,775
"1112","id0043",1,18,0,0,"AI","None",7,3,"Orange","f","accept",3,759
"1113","id0043",1,19,0,0,"AI","None",9,1,"Orange","f","accept",1,729
"1114","id0043",1,20,0,0,"AI","None",5,5,"Orange","f","accept",5,587
"1115","id0043",1,21,0,0,"human","None",8,2,"CornflowerBlue","f","accept",2,969
"1116","id0043",1,22,0,0,"AI","None",9,1,"Orange","f","accept",1,1622
"1117","id0043",1,23,0,0,"human","None",9,1,"CornflowerBlue","j","reject",0,896
"1118","id0043",1,24,0,0,"human","None",4,6,"CornflowerBlue","f","accept",6,713
"1119","id0044",0,1,1,0,"practice","Practice",8,2,"black","j","reject",0,2032
"1120","id0044",0,2,1,0,"practice","Practice",3,7,"black","f","accept",7,600
"1121","id0044",1,1,0,0,"human","None",7,3,"Orange","f","accept",3,3011
"1122","id0044",1,2,0,0,"AI","None",7,3,"CornflowerBlue","j","reject",0,1456
"1123","id0044",1,3,0,0,"human","None",4,6,"Orange","f","accept",6,368
"1124","id0044",1,4,0,0,"AI","None",8,2,"CornflowerBlue","j","reject",0,528
"1125","id0044",1,5,0,0,"human","None",5,5,"Orange","f","accept",5,320
"1126","id0044",1,6,0,0,"AI","None",4,6,"CornflowerBlue","f","accept",6,478
"1127","id0044",1,7,0,0,"AI","None",9,1,"CornflowerBlue","j","reject",0,550
"1128","id0044",1,8,0,0,"human","None",8,2,"Orange","j","reject",0,537
"1129","id0044",1,9,0,0,"AI","None",5,5,"CornflowerBlue","f","accept",5,393
"1130","id0044",1,10,0,0,"AI","None",4,6,"CornflowerBlue","f","accept",6,498
"1131","id0044",1,11,0,0,"human","None",5,5,"Orange","f","accept",5,426
"1132","id0044",1,12,0,0,"human","None",9,1,"Orange","j","reject",0,302
"1133","id0044",1,13,0,0,"human","None",8,2,"Orange","j","reject",0,455
"1134","id0044",1,14,0,0,"human","None",9,1,"Orange","j","reject",0,615
"1135","id0044",1,15,0,0,"human","None",7,3,"Orange","f","accept",3,664
"1136","id0044",1,16,0,0,"AI","None",7,3,"CornflowerBlue","f","accept",3,1335
"1137","id0044",1,17,0,0,"human","None",6,4,"Orange","f","accept",4,124
"1138","id0044",1,18,0,0,"AI","None",8,2,"CornflowerBlue","j","reject",0,268
"1139","id0044",1,19,0,0,"human","None",4,6,"Orange","f","accept",6,343
"1140","id0044",1,20,0,0,"human","None",6,4,"Orange","f","accept",4,338
"1141","id0044",1,21,0,0,"AI","None",9,1,"CornflowerBlue","j","reject",0,296
"1142","id0044",1,22,0,1,"AI","None",6,4,"CornflowerBlue","f","accept",4,660
"1143","id0044",1,23,0,0,"AI","None",6,4,"CornflowerBlue","f","accept",4,399
"1144","id0044",1,24,0,0,"AI","None",5,5,"CornflowerBlue","f","accept",5,343
"1145","id0045",0,1,1,0,"practice","Practice",5,5,"black","f","accept",5,1516
"1146","id0045",0,2,1,0,"practice","Practice",2,8,"black","f","accept",8,719
"1147","id0045",1,1,0,0,"AI","Proposer",7,3,"CornflowerBlue","j","reject",0,562
"1148","id0045",1,2,0,0,"human","Proposer",5,5,"Orange","f","accept",5,468
"1149","id0045",1,3,0,0,"human","Proposer",9,1,"Orange","j","reject",0,305
"1150","id0045",1,4,0,0,"AI","Proposer",7,3,"CornflowerBlue","j","reject",0,335
"1151","id0045",1,5,0,0,"AI","Proposer",8,2,"CornflowerBlue","j","reject",0,485
"1152","id0045",1,6,0,0,"AI","Proposer",4,6,"CornflowerBlue","f","accept",6,334
"1153","id0045",1,7,0,0,"AI","Proposer",6,4,"CornflowerBlue","j","reject",0,294
"1154","id0045",1,8,0,0,"human","Proposer",8,2,"Orange","j","reject",0,255
"1155","id0045",1,9,0,0,"human","Proposer",6,4,"Orange","j","reject",0,371
"1156","id0045",1,10,0,0,"AI","Proposer",5,5,"CornflowerBlue","f","accept",5,1195
"1157","id0045",1,11,0,0,"human","Proposer",8,2,"Orange","j","reject",0,475
"1158","id0045",1,12,0,0,"human","Proposer",4,6,"Orange","f","accept",6,412
"1159","id0045",1,13,0,0,"human","Proposer",5,5,"Orange","f","accept",5,739
"1160","id0045",1,14,0,0,"human","Proposer",7,3,"Orange","j","reject",0,1095
"1161","id0045",1,15,0,1,"AI","Proposer",9,1,"CornflowerBlue","j","reject",0,369
"1162","id0045",1,16,0,0,"AI","Proposer",9,1,"CornflowerBlue","j","reject",0,243
"1163","id0045",1,17,0,0,"AI","Proposer",8,2,"CornflowerBlue","j","reject",0,572
"1164","id0045",1,18,0,0,"AI","Proposer",6,4,"CornflowerBlue","j","reject",0,542
"1165","id0045",1,19,0,0,"AI","Proposer",5,5,"CornflowerBlue","f","accept",5,1044
"1166","id0045",1,20,0,0,"human","Proposer",9,1,"Orange","j","reject",0,434
"1167","id0045",1,21,0,0,"human","Proposer",6,4,"Orange","j","reject",0,4024
"1168","id0045",1,22,0,0,"AI","Proposer",4,6,"CornflowerBlue","f","accept",6,295
"1169","id0045",1,23,0,0,"human","Proposer",7,3,"Orange","j","reject",0,386
"1170","id0045",1,24,0,0,"human","Proposer",4,6,"Orange","f","accept",6,237
"1171","id0046",0,1,1,0,"practice","Practice",8,2,"black","j","reject",0,2778
"1172","id0046",0,2,1,0,"practice","Practice",2,8,"black","j","reject",0,1012
"1173","id0046",1,1,0,0,"AI","None",7,3,"Orange","j","reject",0,1484
"1174","id0046",1,2,0,0,"human","None",4,6,"CornflowerBlue","f","accept",6,229
"1175","id0046",1,3,0,0,"human","None",5,5,"CornflowerBlue","f","accept",5,4771
"1176","id0046",1,4,0,0,"human","None",8,2,"CornflowerBlue","j","reject",0,2661
"1177","id0046",1,5,0,1,"AI","None",8,2,"Orange","j","reject",0,1267
"1178","id0046",1,6,0,0,"AI","None",6,4,"Orange","f","accept",4,2099
"1179","id0046",1,7,0,0,"human","None",7,3,"CornflowerBlue","j","reject",0,1154
"1180","id0046",1,8,0,0,"AI","None",4,6,"Orange","f","accept",6,1520
"1181","id0046",1,9,0,0,"human","None",9,1,"CornflowerBlue","j","reject",0,1384
"1182","id0046",1,10,0,0,"human","None",6,4,"CornflowerBlue","f","accept",4,887
"1183","id0046",1,11,0,0,"AI","None",7,3,"Orange","j","reject",0,1620
"1184","id0046",1,12,0,0,"human","None",8,2,"CornflowerBlue","j","reject",0,1849
"1185","id0046",1,13,0,0,"AI","None",4,6,"Orange","f","accept",6,1118
"1186","id0046",1,14,0,0,"human","None",4,6,"CornflowerBlue","f","accept",6,1998
"1187","id0046",1,15,0,0,"AI","None",5,5,"Orange","f","accept",5,1210
"1188","id0046",1,16,0,0,"AI","None",9,1,"Orange","j","reject",0,832
"1189","id0046",1,17,0,0,"AI","None",9,1,"Orange","j","reject",0,1988
"1190","id0046",1,18,0,0,"AI","None",6,4,"Orange","f","accept",4,1017
"1191","id0046",1,19,0,0,"AI","None",5,5,"Orange","f","accept",5,1414
"1192","id0046",1,20,0,0,"AI","None",8,2,"Orange","j","reject",0,995
"1193","id0046",1,21,0,0,"human","None",5,5,"CornflowerBlue","f","accept",5,1561
"1194","id0046",1,22,0,0,"human","None",7,3,"CornflowerBlue","j","reject",0,1897
"1195","id0046",1,23,0,0,"human","None",6,4,"CornflowerBlue","f","accept",4,1085
"1196","id0046",1,24,0,0,"human","None",9,1,"CornflowerBlue","j","reject",0,1353
"1197","id0047",0,1,1,0,"practice","Practice",2,8,"black","f","accept",8,13434
"1198","id0047",0,2,1,0,"practice","Practice",8,2,"black","j","reject",0,946
"1199","id0047",1,1,0,0,"AI","Proposer",7,3,"CornflowerBlue","j","reject",0,772
"1200","id0047",1,2,0,0,"human","Proposer",7,3,"Orange","j","reject",0,289
"1201","id0047",1,3,0,0,"AI","Proposer",4,6,"CornflowerBlue","f","accept",6,994
"1202","id0047",1,4,0,0,"human","Proposer",9,1,"Orange","f","accept",1,1392
"1203","id0047",1,5,0,0,"human","Proposer",6,4,"Orange","f","accept",4,1322
"1204","id0047",1,6,0,0,"human","Proposer",5,5,"Orange","f","accept",5,1098
"1205","id0047",1,7,0,0,"human","Proposer",4,6,"Orange","j","reject",0,816
"1206","id0047",1,8,0,0,"AI","Proposer",9,1,"CornflowerBlue","j","reject",0,422
"1207","id0047",1,9,0,0,"AI","Proposer",7,3,"CornflowerBlue","j","reject",0,654
"1208","id0047",1,10,0,0,"human","Proposer",7,3,"Orange","j","reject",0,653
"1209","id0047",1,11,0,0,"human","Proposer",8,2,"Orange","j","reject",0,741
"1210","id0047",1,12,0,0,"AI","Proposer",5,5,"CornflowerBlue","f","accept",5,427
"1211","id0047",1,13,0,0,"human","Proposer",9,1,"Orange","j","reject",0,493
"1212","id0047",1,14,0,0,"AI","Proposer",9,1,"CornflowerBlue","j","reject",0,1146
"1213","id0047",1,15,0,0,"human","Proposer",6,4,"Orange","j","reject",0,1662
"1214","id0047",1,16,0,0,"AI","Proposer",5,5,"CornflowerBlue","f","accept",5,1260
"1215","id0047",1,17,0,1,"AI","Proposer",8,2,"CornflowerBlue","j","reject",0,944
"1216","id0047",1,18,0,0,"AI","Proposer",4,6,"CornflowerBlue","f","accept",6,857
"1217","id0047",1,19,0,0,"AI","Proposer",6,4,"CornflowerBlue","j","reject",0,1107
"1218","id0047",1,20,0,0,"AI","Proposer",6,4,"CornflowerBlue","j","reject",0,1776
"1219","id0047",1,21,0,0,"AI","Proposer",8,2,"CornflowerBlue","j","reject",0,518
"1220","id0047",1,22,0,0,"human","Proposer",5,5,"Orange","f","accept",5,360
"1221","id0047",1,23,0,0,"human","Proposer",8,2,"Orange","j","reject",0,24
"1222","id0047",1,24,0,0,"human","Proposer",4,6,"Orange","f","accept",6,363
"1223","id0048",0,1,1,0,"practice","Practice",6,4,"black","f","accept",4,751
"1224","id0048",0,2,1,0,"practice","Practice",3,7,"black","f","accept",7,334
"1225","id0048",1,1,0,1,"human","None",4,6,"CornflowerBlue","f","accept",6,326
"1226","id0048",1,2,0,0,"human","None",9,1,"CornflowerBlue","f","accept",1,174
"1227","id0048",1,3,0,0,"AI","None",6,4,"Orange","f","accept",4,60
"1228","id0048",1,4,0,0,"human","None",8,2,"CornflowerBlue","f","accept",2,475
"1229","id0048",1,5,0,0,"human","None",6,4,"CornflowerBlue","f","accept",4,330
"1230","id0048",1,6,0,0,"AI","None",8,2,"Orange","f","accept",2,465
"1231","id0048",1,7,0,0,"human","None",6,4,"CornflowerBlue","f","accept",4,276
"1232","id0048",1,8,0,0,"human","None",7,3,"CornflowerBlue","f","accept",3,301
"1233","id0048",1,9,0,0,"AI","None",9,1,"Orange","f","accept",1,436
"1234","id0048",1,10,0,0,"AI","None",7,3,"Orange","f","accept",3,283
"1235","id0048",1,11,0,0,"AI","None",5,5,"Orange","f","accept",5,330
"1236","id0048",1,12,0,0,"human","None",5,5,"CornflowerBlue","f","accept",5,498
"1237","id0048",1,13,0,0,"AI","None",5,5,"Orange","f","accept",5,458
"1238","id0048",1,14,0,0,"human","None",5,5,"CornflowerBlue","f","accept",5,338
"1239","id0048",1,15,0,0,"AI","None",7,3,"Orange","f","accept",3,558
"1240","id0048",1,16,0,0,"AI","None",9,1,"Orange","f","accept",1,387
"1241","id0048",1,17,0,0,"AI","None",4,6,"Orange","f","accept",6,378
"1242","id0048",1,18,0,0,"AI","None",8,2,"Orange","f","accept",2,523
"1243","id0048",1,19,0,0,"human","None",9,1,"CornflowerBlue","f","accept",1,875
"1244","id0048",1,20,0,0,"human","None",7,3,"CornflowerBlue","f","accept",3,316
"1245","id0048",1,21,0,0,"AI","None",6,4,"Orange","f","accept",4,335
"1246","id0048",1,22,0,0,"AI","None",4,6,"Orange","f","accept",6,280
"1247","id0048",1,23,0,0,"human","None",4,6,"CornflowerBlue","f","accept",6,351
"1248","id0048",1,24,0,0,"human","None",8,2,"CornflowerBlue","f","accept",2,254
"1249","id0049",0,1,1,0,"practice","Practice",0,10,"black","f","accept",10,1246
"1250","id0049",0,2,1,0,"practice","Practice",5,5,"black","f","accept",5,1940
"1251","id0049",1,1,0,0,"human","Proposer",4,6,"Orange","f","accept",6,3174
"1252","id0049",1,2,0,0,"human","Proposer",7,3,"Orange","j","reject",0,7191
"1253","id0049",1,3,0,0,"human","Proposer",7,3,"Orange","j","reject",0,1492
"1254","id0049",1,4,0,0,"human","Proposer",9,1,"Orange","j","reject",0,1849
"1255","id0049",1,5,0,0,"human","Proposer",9,1,"Orange","j","reject",0,1719
"1256","id0049",1,6,0,0,"AI","Proposer",9,1,"CornflowerBlue","j","reject",0,653
"1257","id0049",1,7,0,0,"AI","Proposer",7,3,"CornflowerBlue","j","reject",0,2224
"1258","id0049",1,8,0,0,"human","Proposer",5,5,"Orange","f","accept",5,1802
"1259","id0049",1,9,0,0,"human","Proposer",8,2,"Orange","j","reject",0,2661
"1260","id0049",1,10,0,0,"human","Proposer",6,4,"Orange","f","accept",4,2161
"1261","id0049",1,11,0,0,"human","Proposer",5,5,"Orange","f","accept",5,1331
"1262","id0049",1,12,0,0,"AI","Proposer",8,2,"CornflowerBlue","j","reject",0,3104
"1263","id0049",1,13,0,0,"AI","Proposer",7,3,"CornflowerBlue","j","reject",0,1300
"1264","id0049",1,14,0,0,"AI","Proposer",5,5,"CornflowerBlue","f","accept",5,1194
"1265","id0049",1,15,0,0,"AI","Proposer",4,6,"CornflowerBlue","f","accept",6,2502
"1266","id0049",1,16,0,0,"AI","Proposer",9,1,"CornflowerBlue","j","reject",0,1893
"1267","id0049",1,17,0,0,"AI","Proposer",8,2,"CornflowerBlue","j","reject",0,1347
"1268","id0049",1,18,0,0,"human","Proposer",6,4,"Orange","f","accept",4,2276
"1269","id0049",1,19,0,0,"AI","Proposer",4,6,"CornflowerBlue","f","accept",6,997
"1270","id0049",1,20,0,0,"AI","Proposer",5,5,"CornflowerBlue","f","accept",5,2179
"1271","id0049",1,21,0,1,"AI","Proposer",6,4,"CornflowerBlue","f","accept",4,1733
"1272","id0049",1,22,0,0,"AI","Proposer",6,4,"CornflowerBlue","f","accept",4,748
"1273","id0049",1,23,0,0,"human","Proposer",8,2,"Orange","j","reject",0,1434
"1274","id0049",1,24,0,0,"human","Proposer",4,6,"Orange","f","accept",6,2248
"1275","id0050",0,1,1,0,"practice","Practice",1,9,"black","f","accept",9,729
"1276","id0050",0,2,1,0,"practice","Practice",5,5,"black","f","accept",5,404
"1277","id0050",1,1,0,0,"human","None",7,3,"Orange","j","reject",0,151
"1278","id0050",1,2,0,0,"human","None",6,4,"Orange","f","accept",4,532
"1279","id0050",1,3,0,0,"human","None",9,1,"Orange","j","reject",0,494
"1280","id0050",1,4,0,0,"AI","None",6,4,"CornflowerBlue","f","accept",4,4
"1281","id0050",1,5,0,0,"AI","None",9,1,"CornflowerBlue","j","reject",0,284
"1282","id0050",1,6,0,0,"human","None",5,5,"Orange","f","accept",5,319
"1283","id0050",1,7,0,0,"AI","None",7,3,"CornflowerBlue","j","reject",0,295
"1284","id0050",1,8,0,0,"AI","None",6,4,"CornflowerBlue","f","accept",4,234
"1285","id0050",1,9,0,0,"AI","None",8,2,"CornflowerBlue","j","reject",0,132
"1286","id0050",1,10,0,0,"AI","None",4,6,"CornflowerBlue","f","accept",6,358
"1287","id0050",1,11,0,0,"AI","None",5,5,"CornflowerBlue","f","accept",5,484
"1288","id0050",1,12,0,0,"human","None",6,4,"Orange","f","accept",4,469
"1289","id0050",1,13,0,0,"human","None",4,6,"Orange","f","accept",6,656
"1290","id0050",1,14,0,0,"AI","None",4,6,"CornflowerBlue","f","accept",6,306
"1291","id0050",1,15,0,0,"AI","None",9,1,"CornflowerBlue","j","reject",0,360
"1292","id0050",1,16,0,0,"human","None",4,6,"Orange","f","accept",6,266
"1293","id0050",1,17,0,0,"AI","None",5,5,"CornflowerBlue","f","accept",5,350
"1294","id0050",1,18,0,0,"human","None",8,2,"Orange","j","reject",0,391
"1295","id0050",1,19,0,1,"human","None",8,2,"Orange","j","reject",0,693
"1296","id0050",1,20,0,0,"human","None",9,1,"Orange","j","reject",0,419
"1297","id0050",1,21,0,0,"AI","None",8,2,"CornflowerBlue","j","reject",0,280
"1298","id0050",1,22,0,0,"human","None",5,5,"Orange","f","accept",5,271
"1299","id0050",1,23,0,0,"AI","None",7,3,"CornflowerBlue","j","reject",0,314
"1300","id0050",1,24,0,0,"human","None",7,3,"Orange","j","reject",0,366
"1301","id0051",0,1,1,0,"practice","Practice",3,7,"black","f","accept",7,5041
"1302","id0051",0,2,1,0,"practice","Practice",0,10,"black","f","accept",10,772
"1303","id0051",1,1,0,0,"human","Proposer",9,1,"CornflowerBlue","j","reject",0,554
"1304","id0051",1,2,0,0,"AI","Proposer",6,4,"Orange","f","accept",4,3543
"1305","id0051",1,3,0,0,"human","Proposer",7,3,"CornflowerBlue","j","reject",0,294
"1306","id0051",1,4,0,0,"human","Proposer",4,6,"CornflowerBlue","f","accept",6,1026
"1307","id0051",1,5,0,1,"AI","Proposer",9,1,"Orange","j","reject",0,126
"1308","id0051",1,6,0,0,"human","Proposer",7,3,"CornflowerBlue","j","reject",0,355
"1309","id0051",1,7,0,0,"AI","Proposer",8,2,"Orange","j","reject",0,218
"1310","id0051",1,8,0,0,"human","Proposer",8,2,"CornflowerBlue","j","reject",0,519
"1311","id0051",1,9,0,0,"human","Proposer",5,5,"CornflowerBlue","f","accept",5,333
"1312","id0051",1,10,0,0,"AI","Proposer",7,3,"Orange","j","reject",0,354
"1313","id0051",1,11,0,0,"human","Proposer",5,5,"CornflowerBlue","f","accept",5,301
"1314","id0051",1,12,0,0,"AI","Proposer",5,5,"Orange","f","accept",5,424
"1315","id0051",1,13,0,0,"AI","Proposer",6,4,"Orange","j","reject",0,960
"1316","id0051",1,14,0,0,"AI","Proposer",9,1,"Orange","j","reject",0,336
"1317","id0051",1,15,0,0,"human","Proposer",6,4,"CornflowerBlue","f","accept",4,772
"1318","id0051",1,16,0,0,"human","Proposer",9,1,"CornflowerBlue","j","reject",0,297
"1319","id0051",1,17,0,0,"human","Proposer",4,6,"CornflowerBlue","f","accept",6,390
"1320","id0051",1,18,0,0,"AI","Proposer",8,2,"Orange","j","reject",0,400
"1321","id0051",1,19,0,0,"human","Proposer",6,4,"CornflowerBlue","f","accept",4,517
"1322","id0051",1,20,0,0,"AI","Proposer",4,6,"Orange","f","accept",6,297
"1323","id0051",1,21,0,0,"AI","Proposer",7,3,"Orange","j","reject",0,398
"1324","id0051",1,22,0,0,"AI","Proposer",4,6,"Orange","f","accept",6,269
"1325","id0051",1,23,0,0,"AI","Proposer",5,5,"Orange","f","accept",5,270
"1326","id0051",1,24,0,0,"human","Proposer",8,2,"CornflowerBlue","j","reject",0,289
"1327","id0052",0,1,1,0,"practice","Practice",9,1,"black","j","reject",0,174
"1328","id0052",0,2,1,0,"practice","Practice",6,4,"black","f","accept",4,768
"1329","id0052",1,1,0,0,"human","None",4,6,"Orange","f","accept",6,2595
