"","id","block","trial_number","practice_trial","random_trial","opponent","training_condition","proposer_offer","receiver_offer","color","response_key","response","outcome","reaction_time"
"1","id0001",0,1,1,0,"practice","Practice",7,3,"black","f","accept",3,17079
"2","id0001",0,2,1,0,"practice","Practice",10,0,"black","j","reject",0,4357
"3","id0001",1,1,0,0,"AI","training_others",4,6,"CornflowerBlue","f","accept",6,3562
"4","id0001",1,2,0,0,"human","training_others",7,3,"Orange","j","reject",0,29360
"5","id0001",1,3,0,0,"human","training_others",9,1,"Orange","j","reject",0,4585
"6","id0001",1,4,0,0,"human","training_others",8,2,"Orange","j","reject",0,3021
"7","id0001",1,5,0,0,"human","training_others",6,4,"Orange","f","accept",4,3968
"8","id0001",1,6,0,0,"AI","training_others",9,1,"CornflowerBlue","j","reject",0,2923
"9","id0001",1,7,0,1,"AI","training_others",4,6,"CornflowerBlue","f","accept",6,3735
"10","id0001",1,8,0,0,"AI","training_others",6,4,"CornflowerBlue","f","accept",4,11720
"11","id0001",1,9,0,0,"AI","training_others",9,1,"CornflowerBlue","j","reject",0,2126
"12","id0001",1,10,0,0,"human","training_others",4,6,"Orange","f","accept",6,2859
"13","id0001",1,11,0,0,"AI","training_others",8,2,"CornflowerBlue","j","reject",0,2824
"14","id0001",1,12,0,0,"human","training_others",5,5,"Orange","f","accept",5,1993
"15","id0001",1,13,0,0,"human","training_others",6,4,"Orange","j","reject",0,4745
"16","id0001",1,14,0,0,"human","training_others",9,1,"Orange","j","reject",0,2262
"17","id0001",1,15,0,0,"AI","training_others",5,5,"CornflowerBlue","f","accept",5,3594
"18","id0001",1,16,0,0,"AI","training_others",8,2,"CornflowerBlue","j","reject",0,2925
"19","id0001",1,17,0,0,"human","training_others",8,2,"Orange","j","reject",0,1919
"20","id0001",1,18,0,0,"human","training_others",5,5,"Orange","f","accept",5,2950
"21","id0001",1,19,0,0,"AI","training_others",7,3,"CornflowerBlue","j","reject",0,3047
"22","id0001",1,20,0,0,"human","training_others",4,6,"Orange","f","accept",6,2694
"23","id0001",1,21,0,0,"AI","training_others",7,3,"CornflowerBlue","j","reject",0,2042
"24","id0001",1,22,0,0,"AI","training_others",5,5,"CornflowerBlue","f","accept",5,3231
"25","id0001",1,23,0,0,"AI","training_others",6,4,"CornflowerBlue","j","reject",0,2424
"26","id0001",1,24,0,0,"human","training_others",7,3,"Orange","j","reject",0,1949
"27","id0002",0,1,1,0,"practice","Practice",3,7,"black","f","accept",7,4241
"28","id0002",0,2,1,0,"practice","Practice",3,7,"black","f","accept",7,4977
"29","id0002",1,1,0,0,"AI","training_others",7,3,"Orange","j","reject",0,3122
"30","id0002",1,2,0,0,"AI","training_others",4,6,"Orange","f","accept",6,2225
"31","id0002",1,3,0,0,"AI","training_others",9,1,"Orange","j","reject",0,514
"32","id0002",1,4,0,0,"human","training_others",7,3,"CornflowerBlue","j","reject",0,375
"33","id0002",1,5,0,0,"AI","training_others",9,1,"Orange","j","reject",0,585
"34","id0002",1,6,0,0,"AI","training_others",7,3,"Orange","j","reject",0,132
"35","id0002",1,7,0,0,"AI","training_others",5,5,"Orange","f","accept",5,911
"36","id0002",1,8,0,0,"AI","training_others",4,6,"Orange","f","accept",6,926
"37","id0002",1,9,0,0,"human","training_others",8,2,"CornflowerBlue","j","reject",0,203
"38","id0002",1,10,0,0,"human","training_others",9,1,"CornflowerBlue","j","reject",0,170
"39","id0002",1,11,0,0,"human","training_others",8,2,"CornflowerBlue","j","reject",0,183
"40","id0002",1,12,0,0,"human","training_others",5,5,"CornflowerBlue","f","accept",5,677
"41","id0002",1,13,0,0,"AI","training_others",8,2,"Orange","j","reject",0,778
"42","id0002",1,14,0,0,"AI","training_others",5,5,"Orange","f","accept",5,1517
"43","id0002",1,15,0,0,"human","training_others",6,4,"CornflowerBlue","j","reject",0,4154
"44","id0002",1,16,0,0,"AI","training_others",6,4,"Orange","j","reject",0,982
"45","id0002",1,17,0,0,"human","training_others",9,1,"CornflowerBlue","j","reject",0,1870
"46","id0002",1,18,0,0,"human","training_others",4,6,"CornflowerBlue","f","accept",6,589
"47","id0002",1,19,0,0,"AI","training_others",8,2,"Orange","j","reject",0,1377
"48","id0002",1,20,0,0,"human","training_others",4,6,"CornflowerBlue","f","accept",6,563
"49","id0002",1,21,0,0,"human","training_others",7,3,"CornflowerBlue","j","reject",0,2709
"50","id0002",1,22,0,0,"human","training_others",6,4,"CornflowerBlue","j","reject",0,3952
"51","id0002",1,23,0,0,"AI","training_others",6,4,"Orange","j","reject",0,6814
"52","id0002",1,24,0,1,"human","training_others",5,5,"CornflowerBlue","f","accept",5,474
"53","id0003",0,1,1,0,"practice","Practice",7,3,"black","f","accept",3,205
"54","id0003",0,2,1,0,"practice","Practice",9,1,"black","j","reject",0,477
"55","id0003",1,1,0,0,"AI","training_others",5,5,"CornflowerBlue","f","accept",5,579
"56","id0003",1,2,0,1,"AI","training_others",7,3,"CornflowerBlue","f","accept",3,403
"57","id0003",1,3,0,0,"human","training_others",5,5,"Orange","f","accept",5,451
"58","id0003",1,4,0,0,"AI","training_others",6,4,"CornflowerBlue","f","accept",4,347
"59","id0003",1,5,0,0,"human","training_others",7,3,"Orange","f","accept",3,461
"60","id0003",1,6,0,0,"human","training_others",5,5,"Orange","f","accept",5,413
"61","id0003",1,7,0,0,"human","training_others",8,2,"Orange","f","accept",2,405
"62","id0003",1,8,0,0,"AI","training_others",4,6,"CornflowerBlue","f","accept",6,404
"63","id0003",1,9,0,0,"AI","training_others",7,3,"CornflowerBlue","f","accept",3,356
"64","id0003",1,10,0,0,"AI","training_others",4,6,"CornflowerBlue","f","accept",6,437
"65","id0003",1,11,0,0,"human","training_others",9,1,"Orange","j","reject",0,1997
"66","id0003",1,12,0,0,"human","training_others",6,4,"Orange","f","accept",4,388
"67","id0003",1,13,0,0,"human","training_others",6,4,"Orange","f","accept",4,525
"68","id0003",1,14,0,0,"AI","training_others",9,1,"CornflowerBlue","j","reject",0,468
"69","id0003",1,15,0,0,"human","training_others",4,6,"Orange","f","accept",6,349
"70","id0003",1,16,0,0,"AI","training_others",8,2,"CornflowerBlue","f","accept",2,325
"71","id0003",1,17,0,0,"human","training_others",7,3,"Orange","f","accept",3,404
"72","id0003",1,18,0,0,"AI","training_others",8,2,"CornflowerBlue","f","accept",2,317
"73","id0003",1,19,0,0,"AI","training_others",6,4,"CornflowerBlue","f","accept",4,452
"74","id0003",1,20,0,0,"human","training_others",9,1,"Orange","j","reject",0,430
"75","id0003",1,21,0,0,"AI","training_others",9,1,"CornflowerBlue","j","reject",0,477
"76","id0003",1,22,0,0,"human","training_others",8,2,"Orange","f","accept",2,396
"77","id0003",1,23,0,0,"human","training_others",4,6,"Orange","f","accept",6,397
"78","id0003",1,24,0,0,"AI","training_others",5,5,"CornflowerBlue","f","accept",5,580
"79","id0004",0,1,1,0,"practice","Practice",5,5,"black","f","accept",5,715
"80","id0004",0,2,1,0,"practice","Practice",3,7,"black","f","accept",7,688
"81","id0004",1,1,0,0,"AI","control",4,6,"CornflowerBlue","f","accept",6,453
"82","id0004",1,2,0,0,"human","control",8,2,"Orange","f","accept",2,364
"83","id0004",1,3,0,0,"AI","control",9,1,"CornflowerBlue","f","accept",1,371
"84","id0004",1,4,0,0,"human","control",4,6,"Orange","f","accept",6,336
"85","id0004",1,5,0,1,"AI","control",7,3,"CornflowerBlue","f","accept",3,326
"86","id0004",1,6,0,0,"AI","control",9,1,"CornflowerBlue","f","accept",1,402
"87","id0004",1,7,0,0,"human","control",9,1,"Orange","f","accept",1,1102
"88","id0004",1,8,0,0,"human","control",7,3,"Orange","f","accept",3,414
"89","id0004",1,9,0,0,"human","control",7,3,"Orange","f","accept",3,501
"90","id0004",1,10,0,0,"AI","control",8,2,"CornflowerBlue","f","accept",2,373
"91","id0004",1,11,0,0,"AI","control",8,2,"CornflowerBlue","f","accept",2,422
"92","id0004",1,12,0,0,"human","control",5,5,"Orange","f","accept",5,929
"93","id0004",1,13,0,0,"human","control",6,4,"Orange","f","accept",4,625
"94","id0004",1,14,0,0,"AI","control",4,6,"CornflowerBlue","f","accept",6,512
"95","id0004",1,15,0,0,"human","control",4,6,"Orange","f","accept",6,500
"96","id0004",1,16,0,0,"AI","control",5,5,"CornflowerBlue","f","accept",5,322
"97","id0004",1,17,0,0,"human","control",8,2,"Orange","f","accept",2,398
"98","id0004",1,18,0,0,"human","control",5,5,"Orange","f","accept",5,435
"99","id0004",1,19,0,0,"human","control",6,4,"Orange","f","accept",4,415
"100","id0004",1,20,0,0,"AI","control",6,4,"CornflowerBlue","f","accept",4,489
"101","id0004",1,21,0,0,"human","control",9,1,"Orange","f","accept",1,350
"102","id0004",1,22,0,0,"AI","control",6,4,"CornflowerBlue","f","accept",4,303
"103","id0004",1,23,0,0,"AI","control",5,5,"CornflowerBlue","f","accept",5,963
"104","id0004",1,24,0,0,"AI","control",7,3,"CornflowerBlue","f","accept",3,638
"105","id0005",0,1,1,0,"practice","Practice",5,5,"black","f","accept",5,1410
"106","id0005",0,2,1,0,"practice","Practice",2,8,"black","f","accept",8,1079
"107","id0005",1,1,0,0,"human","control",4,6,"CornflowerBlue","f","accept",6,852
"108","id0005",1,2,0,0,"human","control",5,5,"CornflowerBlue","f","accept",5,3815
"109","id0005",1,3,0,0,"AI","control",7,3,"Orange","f","accept",3,8382
"110","id0005",1,4,0,0,"human","control",8,2,"CornflowerBlue","j","reject",0,4069
"111","id0005",1,5,0,0,"AI","control",8,2,"Orange","j","reject",0,3343
"112","id0005",1,6,0,0,"AI","control",7,3,"Orange","f","accept",3,516
"113","id0005",1,7,0,0,"AI","control",8,2,"Orange","j","reject",0,780
"114","id0005",1,8,0,0,"human","control",8,2,"CornflowerBlue","j","reject",0,470
"115","id0005",1,9,0,0,"human","control",4,6,"CornflowerBlue","f","accept",6,636
"116","id0005",1,10,0,0,"AI","control",6,4,"Orange","f","accept",4,576
"117","id0005",1,11,0,1,"AI","control",4,6,"Orange","f","accept",6,640
"118","id0005",1,12,0,0,"AI","control",5,5,"Orange","f","accept",5,455
"119","id0005",1,13,0,0,"AI","control",5,5,"Orange","f","accept",5,326
"120","id0005",1,14,0,0,"human","control",5,5,"CornflowerBlue","f","accept",5,455
"121","id0005",1,15,0,0,"AI","control",4,6,"Orange","f","accept",6,410
"122","id0005",1,16,0,0,"human","control",7,3,"CornflowerBlue","f","accept",3,405
"123","id0005",1,17,0,0,"human","control",9,1,"CornflowerBlue","j","reject",0,403
"124","id0005",1,18,0,0,"human","control",9,1,"CornflowerBlue","j","reject",0,1496
"125","id0005",1,19,0,0,"AI","control",9,1,"Orange","j","reject",0,2016
"126","id0005",1,20,0,0,"human","control",7,3,"CornflowerBlue","f","accept",3,8455
"127","id0005",1,21,0,0,"AI","control",6,4,"Orange","f","accept",4,1188
"128","id0005",1,22,0,0,"human","control",6,4,"CornflowerBlue","f","accept",4,395
"129","id0005",1,23,0,0,"AI","control",9,1,"Orange","j","reject",0,379
"130","id0005",1,24,0,0,"human","control",6,4,"CornflowerBlue","f","accept",4,443
"131","id0006",0,1,1,0,"practice","Practice",9,1,"black","j","reject",0,14088
"132","id0006",0,2,1,0,"practice","Practice",2,8,"black","f","accept",8,880
"133","id0006",1,1,0,0,"AI","training_others",4,6,"CornflowerBlue","f","accept",6,1824
"134","id0006",1,2,0,0,"AI","training_others",5,5,"CornflowerBlue","f","accept",5,2879
"135","id0006",1,3,0,0,"human","training_others",8,2,"Orange","j","reject",0,2071
"136","id0006",1,4,0,0,"AI","training_others",7,3,"CornflowerBlue","j","reject",0,3352
"137","id0006",1,5,0,0,"human","training_others",9,1,"Orange","j","reject",0,400
"138","id0006",1,6,0,0,"AI","training_others",4,6,"CornflowerBlue","f","accept",6,1337
"139","id0006",1,7,0,0,"AI","training_others",6,4,"CornflowerBlue","f","accept",4,1952
"140","id0006",1,8,0,0,"AI","training_others",9,1,"CornflowerBlue","j","reject",0,119
"141","id0006",1,9,0,0,"AI","training_others",8,2,"CornflowerBlue","j","reject",0,2991
"142","id0006",1,10,0,1,"human","training_others",7,3,"Orange","j","reject",0,128
"143","id0006",1,11,0,0,"human","training_others",8,2,"Orange","j","reject",0,2776
"144","id0006",1,12,0,0,"AI","training_others",8,2,"CornflowerBlue","j","reject",0,985
"145","id0006",1,13,0,0,"human","training_others",4,6,"Orange","f","accept",6,312
"146","id0006",1,14,0,0,"human","training_others",9,1,"Orange","j","reject",0,432
"147","id0006",1,15,0,0,"human","training_others",5,5,"Orange","f","accept",5,2880
"148","id0006",1,16,0,0,"AI","training_others",9,1,"CornflowerBlue","j","reject",0,688
"149","id0006",1,17,0,0,"human","training_others",6,4,"Orange","f","accept",4,96
"150","id0006",1,18,0,0,"AI","training_others",5,5,"CornflowerBlue","f","accept",5,3856
"151","id0006",1,19,0,0,"AI","training_others",7,3,"CornflowerBlue","j","reject",0,112
"152","id0006",1,20,0,0,"human","training_others",7,3,"Orange","j","reject",0,576
"153","id0006",1,21,0,0,"AI","training_others",6,4,"CornflowerBlue","f","accept",4,538
"154","id0006",1,22,0,0,"human","training_others",4,6,"Orange","f","accept",6,912
"155","id0006",1,23,0,0,"human","training_others",5,5,"Orange","f","accept",5,1799
"156","id0006",1,24,0,0,"human","training_others",6,4,"Orange","f","accept",4,551
"157","id0008",0,1,1,0,"practice","Practice",7,3,"black","j","reject",0,193
"158","id0008",0,2,1,0,"practice","Practice",8,2,"black","j","reject",0,142
"159","id0008",1,1,0,0,"human","control",5,5,"Orange","f","accept",5,405
"160","id0008",1,2,0,0,"AI","control",7,3,"CornflowerBlue","j","reject",0,756
"161","id0008",1,3,0,0,"human","control",8,2,"Orange","j","reject",0,270
"162","id0008",1,4,0,0,"AI","control",9,1,"CornflowerBlue","j","reject",0,131
"163","id0008",1,5,0,0,"human","control",9,1,"Orange","j","reject",0,286
"164","id0008",1,6,0,0,"human","control",4,6,"Orange","f","accept",6,336
"165","id0008",1,7,0,0,"human","control",8,2,"Orange","j","reject",0,542
"166","id0008",1,8,0,0,"AI","control",5,5,"CornflowerBlue","f","accept",5,278
"167","id0008",1,9,0,0,"human","control",6,4,"Orange","f","accept",4,250
"168","id0008",1,10,0,0,"human","control",9,1,"Orange","j","reject",0,87
"169","id0008",1,11,0,0,"AI","control",8,2,"CornflowerBlue","j","reject",0,325
"170","id0008",1,12,0,0,"AI","control",6,4,"CornflowerBlue","f","accept",4,398
"171","id0008",1,13,0,0,"AI","control",7,3,"CornflowerBlue","j","reject",0,1158
"172","id0008",1,14,0,1,"AI","control",8,2,"CornflowerBlue","j","reject",0,423
"173","id0008",1,15,0,0,"human","control",7,3,"Orange","j","reject",0,363
"174","id0008",1,16,0,0,"AI","control",9,1,"CornflowerBlue","j","reject",0,251
"175","id0008",1,17,0,0,"AI","control",6,4,"CornflowerBlue","f","accept",4,327
"176","id0008",1,18,0,0,"human","control",6,4,"Orange","f","accept",4,304
"177","id0008",1,19,0,0,"human","control",4,6,"Orange","f","accept",6,405
"178","id0008",1,20,0,0,"human","control",5,5,"Orange","f","accept",5,356
"179","id0008",1,21,0,0,"human","control",7,3,"Orange","j","reject",0,585
"180","id0008",1,22,0,0,"AI","control",5,5,"CornflowerBlue","f","accept",5,507
"181","id0008",1,23,0,0,"AI","control",4,6,"CornflowerBlue","f","accept",6,429
"182","id0008",1,24,0,0,"AI","control",4,6,"CornflowerBlue","f","accept",6,378
"183","id0009",0,1,1,0,"practice","Practice",1,9,"black","f","accept",9,3310
"184","id0009",0,2,1,0,"practice","Practice",8,2,"black","j","reject",0,223
"185","id0009",1,1,0,0,"AI","training_others",7,3,"Orange","j","reject",0,2103
"186","id0009",1,2,0,0,"AI","training_others",5,5,"Orange","f","accept",5,630
"187","id0009",1,3,0,0,"human","training_others",4,6,"CornflowerBlue","f","accept",6,2144
"188","id0009",1,4,0,0,"human","training_others",4,6,"CornflowerBlue","f","accept",6,796
"189","id0009",1,5,0,0,"human","training_others",7,3,"CornflowerBlue","j","reject",0,688
"190","id0009",1,6,0,0,"human","training_others",8,2,"CornflowerBlue","j","reject",0,618
"191","id0009",1,7,0,0,"human","training_others",8,2,"CornflowerBlue","f","accept",2,829
"192","id0009",1,8,0,1,"AI","training_others",6,4,"Orange","j","reject",0,1650
"193","id0009",1,9,0,0,"human","training_others",6,4,"CornflowerBlue","f","accept",4,355
"194","id0009",1,10,0,0,"AI","training_others",6,4,"Orange","j","reject",0,526
"195","id0009",1,11,0,0,"AI","training_others",7,3,"Orange","j","reject",0,729
"196","id0009",1,12,0,0,"AI","training_others",8,2,"Orange","j","reject",0,363
"197","id0009",1,13,0,0,"human","training_others",6,4,"CornflowerBlue","f","accept",4,656
"198","id0009",1,14,0,0,"human","training_others",5,5,"CornflowerBlue","f","accept",5,406
"199","id0009",1,15,0,0,"AI","training_others",4,6,"Orange","f","accept",6,481
"200","id0009",1,16,0,0,"AI","training_others",9,1,"Orange","j","reject",0,403
"201","id0009",1,17,0,0,"human","training_others",9,1,"CornflowerBlue","j","reject",0,1385
"202","id0009",1,18,0,0,"human","training_others",5,5,"CornflowerBlue","f","accept",5,504
"203","id0009",1,19,0,0,"human","training_others",9,1,"CornflowerBlue","j","reject",0,541
"204","id0009",1,20,0,0,"AI","training_others",9,1,"Orange","j","reject",0,455
"205","id0009",1,21,0,0,"AI","training_others",5,5,"Orange","f","accept",5,416
"206","id0009",1,22,0,0,"AI","training_others",8,2,"Orange","j","reject",0,363
"207","id0009",1,23,0,0,"AI","training_others",4,6,"Orange","f","accept",6,489
"208","id0009",1,24,0,0,"human","training_others",7,3,"CornflowerBlue","j","reject",0,403
"209","id0010",0,1,1,0,"practice","Practice",4,6,"black","f","accept",6,1035
"210","id0010",0,2,1,0,"practice","Practice",10,0,"black","j","reject",0,641
"211","id0010",1,1,0,0,"AI","training_others",7,3,"CornflowerBlue","f","accept",3,1685
"212","id0010",1,2,0,0,"AI","training_others",8,2,"CornflowerBlue","j","reject",0,429
"213","id0010",1,3,0,0,"AI","training_others",4,6,"CornflowerBlue","f","accept",6,543
"214","id0010",1,4,0,0,"AI","training_others",6,4,"CornflowerBlue","f","accept",4,521
"215","id0010",1,5,0,0,"human","training_others",8,2,"Orange","j","reject",0,493
"216","id0010",1,6,0,0,"human","training_others",4,6,"Orange","f","accept",6,393
"217","id0010",1,7,0,0,"AI","training_others",9,1,"CornflowerBlue","j","reject",0,376
"218","id0010",1,8,0,0,"human","training_others",6,4,"Orange","f","accept",4,638
"219","id0010",1,9,0,0,"human","training_others",9,1,"Orange","j","reject",0,657
"220","id0010",1,10,0,0,"AI","training_others",7,3,"CornflowerBlue","j","reject",0,1045
"221","id0010",1,11,0,0,"human","training_others",5,5,"Orange","f","accept",5,446
"222","id0010",1,12,0,0,"human","training_others",5,5,"Orange","f","accept",5,595
"223","id0010",1,13,0,0,"AI","training_others",6,4,"CornflowerBlue","f","accept",4,419
"224","id0010",1,14,0,0,"human","training_others",7,3,"Orange","j","reject",0,642
"225","id0010",1,15,0,1,"AI","training_others",5,5,"CornflowerBlue","f","accept",5,456
"226","id0010",1,16,0,0,"AI","training_others",5,5,"CornflowerBlue","f","accept",5,849
"227","id0010",1,17,0,0,"human","training_others",7,3,"Orange","j","reject",0,1307
"228","id0010",1,18,0,0,"human","training_others",6,4,"Orange","f","accept",4,508
"229","id0010",1,19,0,0,"AI","training_others",9,1,"CornflowerBlue","j","reject",0,434
"230","id0010",1,20,0,0,"human","training_others",4,6,"Orange","f","accept",6,1615
"231","id0010",1,21,0,0,"AI","training_others",4,6,"CornflowerBlue","f","accept",6,504
"232","id0010",1,22,0,0,"human","training_others",8,2,"Orange","j","reject",0,598
"233","id0010",1,23,0,0,"AI","training_others",8,2,"CornflowerBlue","j","reject",0,438
"234","id0010",1,24,0,0,"human","training_others",9,1,"Orange","j","reject",0,360
"235","id0011",0,1,1,0,"practice","Practice",9,1,"black","j","reject",0,3430
"236","id0011",0,2,1,0,"practice","Practice",8,2,"black","j","reject",0,676
"237","id0011",1,1,0,0,"AI","training_others",8,2,"Orange","j","reject",0,759
"238","id0011",1,2,0,0,"AI","training_others",7,3,"Orange","j","reject",0,617
"239","id0011",1,3,0,0,"human","training_others",5,5,"CornflowerBlue","f","accept",5,463
"240","id0011",1,4,0,0,"human","training_others",9,1,"CornflowerBlue","j","reject",0,266
"241","id0011",1,5,0,0,"AI","training_others",9,1,"Orange","j","reject",0,393
"242","id0011",1,6,0,0,"AI","training_others",5,5,"Orange","f","accept",5,323
"243","id0011",1,7,0,0,"human","training_others",6,4,"CornflowerBlue","j","reject",0,136
"244","id0011",1,8,0,0,"AI","training_others",9,1,"Orange","j","reject",0,64
"245","id0011",1,9,0,0,"AI","training_others",6,4,"Orange","j","reject",0,298
"246","id0011",1,10,0,0,"human","training_others",7,3,"CornflowerBlue","j","reject",0,287
"247","id0011",1,11,0,0,"human","training_others",9,1,"CornflowerBlue","j","reject",0,266
"248","id0011",1,12,0,0,"human","training_others",6,4,"CornflowerBlue","j","reject",0,1237
"249","id0011",1,13,0,0,"human","training_others",5,5,"CornflowerBlue","f","accept",5,420
"250","id0011",1,14,0,0,"human","training_others",4,6,"CornflowerBlue","j","reject",0,444
"251","id0011",1,15,0,0,"AI","training_others",8,2,"Orange","j","reject",0,835
"252","id0011",1,16,0,0,"AI","training_others",4,6,"Orange","j","reject",0,386
"253","id0011",1,17,0,0,"human","training_others",4,6,"CornflowerBlue","j","reject",0,388
"254","id0011",1,18,0,0,"AI","training_others",5,5,"Orange","f","accept",5,387
"255","id0011",1,19,0,0,"human","training_others",7,3,"CornflowerBlue","j","reject",0,358
"256","id0011",1,20,0,0,"AI","training_others",7,3,"Orange","j","reject",0,407
"257","id0011",1,21,0,1,"human","training_others",8,2,"CornflowerBlue","j","reject",0,311
"258","id0011",1,22,0,0,"human","training_others",8,2,"CornflowerBlue","j","reject",0,90
"259","id0011",1,23,0,0,"AI","training_others",6,4,"Orange","j","reject",0,401
"260","id0011",1,24,0,0,"AI","training_others",4,6,"Orange","j","reject",0,455
"261","id0012",0,1,1,0,"practice","Practice",5,5,"black","f","accept",5,805
"262","id0012",0,2,1,0,"practice","Practice",4,6,"black","f","accept",6,111
"263","id0012",1,1,0,0,"human","control",5,5,"Orange","f","accept",5,193
"264","id0012",1,2,0,1,"human","control",6,4,"Orange","f","accept",4,162
"265","id0012",1,3,0,0,"AI","control",6,4,"CornflowerBlue","f","accept",4,217
"266","id0012",1,4,0,0,"human","control",9,1,"Orange","f","accept",1,143
"267","id0012",1,5,0,0,"AI","control",8,2,"CornflowerBlue","f","accept",2,362
"268","id0012",1,6,0,0,"human","control",6,4,"Orange","f","accept",4,179
"269","id0012",1,7,0,0,"AI","control",5,5,"CornflowerBlue","f","accept",5,317
"270","id0012",1,8,0,0,"AI","control",8,2,"CornflowerBlue","f","accept",2,333
"271","id0012",1,9,0,0,"human","control",4,6,"Orange","f","accept",6,361
"272","id0012",1,10,0,0,"human","control",9,1,"Orange","f","accept",1,267
"273","id0012",1,11,0,0,"AI","control",7,3,"CornflowerBlue","f","accept",3,238
"274","id0012",1,12,0,0,"human","control",7,3,"Orange","f","accept",3,328
"275","id0012",1,13,0,0,"AI","control",4,6,"CornflowerBlue","f","accept",6,282
"276","id0012",1,14,0,0,"AI","control",4,6,"CornflowerBlue","f","accept",6,285
"277","id0012",1,15,0,0,"AI","control",6,4,"CornflowerBlue","f","accept",4,827
"278","id0012",1,16,0,0,"AI","control",9,1,"CornflowerBlue","f","accept",1,302
"279","id0012",1,17,0,0,"human","control",5,5,"Orange","f","accept",5,99
"280","id0012",1,18,0,0,"AI","control",5,5,"CornflowerBlue","f","accept",5,1333
"281","id0012",1,19,0,0,"human","control",7,3,"Orange","f","accept",3,366
"282","id0012",1,20,0,0,"AI","control",7,3,"CornflowerBlue","f","accept",3,362
"283","id0012",1,21,0,0,"human","control",8,2,"Orange","f","accept",2,167
"284","id0012",1,22,0,0,"AI","control",9,1,"CornflowerBlue","f","accept",1,272
"285","id0012",1,23,0,0,"human","control",4,6,"Orange","f","accept",6,381
"286","id0012",1,24,0,0,"human","control",8,2,"Orange","f","accept",2,539
"287","id0013",0,1,1,0,"practice","Practice",8,2,"black","j","reject",0,10296
"288","id0013",0,2,1,0,"practice","Practice",3,7,"black","f","accept",7,1183
"289","id0013",1,1,0,1,"AI","training_others",9,1,"Orange","j","reject",0,3
"290","id0013",1,2,0,0,"AI","training_others",8,2,"Orange","j","reject",0,160
"291","id0013",1,3,0,0,"human","training_others",6,4,"CornflowerBlue","f","accept",4,252
"292","id0013",1,4,0,0,"AI","training_others",5,5,"Orange","f","accept",5,314
"293","id0013",1,5,0,0,"AI","training_others",6,4,"Orange","f","accept",4,621
"294","id0013",1,6,0,0,"AI","training_others",7,3,"Orange","j","reject",0,261
"295","id0013",1,7,0,0,"AI","training_others",6,4,"Orange","j","reject",0,320
"296","id0013",1,8,0,0,"human","training_others",5,5,"CornflowerBlue","f","accept",5,305
"297","id0013",1,9,0,0,"human","training_others",4,6,"CornflowerBlue","f","accept",6,1044
"298","id0013",1,10,0,0,"human","training_others",4,6,"CornflowerBlue","f","accept",6,408
"299","id0013",1,11,0,0,"human","training_others",5,5,"CornflowerBlue","f","accept",5,148
"300","id0013",1,12,0,0,"human","training_others",7,3,"CornflowerBlue","j","reject",0,216
"301","id0013",1,13,0,0,"AI","training_others",9,1,"Orange","j","reject",0,464
"302","id0013",1,14,0,0,"human","training_others",8,2,"CornflowerBlue","j","reject",0,241
"303","id0013",1,15,0,0,"AI","training_others",4,6,"Orange","f","accept",6,279
"304","id0013",1,16,0,0,"human","training_others",8,2,"CornflowerBlue","j","reject",0,270
"305","id0013",1,17,0,0,"human","training_others",6,4,"CornflowerBlue","j","reject",0,808
"306","id0013",1,18,0,0,"human","training_others",7,3,"CornflowerBlue","j","reject",0,142
"307","id0013",1,19,0,0,"AI","training_others",7,3,"Orange","j","reject",0,95
"308","id0013",1,20,0,0,"human","training_others",9,1,"CornflowerBlue","j","reject",0,131
"309","id0013",1,21,0,0,"AI","training_others",4,6,"Orange","f","accept",6,343
"310","id0013",1,22,0,0,"AI","training_others",5,5,"Orange","f","accept",5,17
"311","id0013",1,23,0,0,"AI","training_others",8,2,"Orange","j","reject",0,238
"312","id0013",1,24,0,0,"human","training_others",9,1,"CornflowerBlue","j","reject",0,125
"313","id0014",0,1,1,0,"practice","Practice",4,6,"black","f","accept",6,1710
"314","id0014",0,2,1,0,"practice","Practice",4,6,"black","f","accept",6,1568
"315","id0014",1,1,0,0,"human","training_others",7,3,"CornflowerBlue","j","reject",0,563
"316","id0014",1,2,0,0,"AI","training_others",7,3,"Orange","j","reject",0,479
"317","id0014",1,3,0,0,"AI","training_others",4,6,"Orange","f","accept",6,389
"318","id0014",1,4,0,0,"human","training_others",4,6,"CornflowerBlue","f","accept",6,386
"319","id0014",1,5,0,0,"human","training_others",6,4,"CornflowerBlue","f","accept",4,471
"320","id0014",1,6,0,1,"AI","training_others",8,2,"Orange","j","reject",0,378
"321","id0014",1,7,0,0,"AI","training_others",9,1,"Orange","j","reject",0,333
"322","id0014",1,8,0,0,"human","training_others",6,4,"CornflowerBlue","f","accept",4,349
"323","id0014",1,9,0,0,"human","training_others",5,5,"CornflowerBlue","f","accept",5,407
"324","id0014",1,10,0,0,"human","training_others",8,2,"CornflowerBlue","j","reject",0,300
"325","id0014",1,11,0,0,"AI","training_others",8,2,"Orange","j","reject",0,357
"326","id0014",1,12,0,0,"AI","training_others",4,6,"Orange","f","accept",6,484
"327","id0014",1,13,0,0,"AI","training_others",6,4,"Orange","f","accept",4,318
"328","id0014",1,14,0,0,"AI","training_others",7,3,"Orange","j","reject",0,371
"329","id0014",1,15,0,0,"human","training_others",9,1,"CornflowerBlue","j","reject",0,530
"330","id0014",1,16,0,0,"human","training_others",8,2,"CornflowerBlue","j","reject",0,334
"331","id0014",1,17,0,0,"human","training_others",7,3,"CornflowerBlue","j","reject",0,399
"332","id0014",1,18,0,0,"AI","training_others",6,4,"Orange","f","accept",4,364
"333","id0014",1,19,0,0,"human","training_others",9,1,"CornflowerBlue","j","reject",0,358
"334","id0014",1,20,0,0,"human","training_others",5,5,"CornflowerBlue","f","accept",5,317
"335","id0014",1,21,0,0,"AI","training_others",5,5,"Orange","f","accept",5,279
"336","id0014",1,22,0,0,"human","training_others",4,6,"CornflowerBlue","f","accept",6,343
"337","id0014",1,23,0,0,"AI","training_others",5,5,"Orange","f","accept",5,350
"338","id0014",1,24,0,0,"AI","training_others",9,1,"Orange","j","reject",0,317
"339","id0015",0,1,1,0,"practice","Practice",10,0,"black","j","reject",0,8561
"340","id0015",0,2,1,0,"practice","Practice",5,5,"black","f","accept",5,948
"341","id0015",1,1,0,1,"human","control",6,4,"CornflowerBlue","f","accept",4,3686
"342","id0015",1,2,0,0,"AI","control",7,3,"Orange","j","reject",0,6492
"343","id0015",1,3,0,0,"AI","control",6,4,"Orange","f","accept",4,1256
"344","id0015",1,4,0,0,"human","control",7,3,"CornflowerBlue","j","reject",0,343
"345","id0015",1,5,0,0,"AI","control",8,2,"Orange","j","reject",0,662
"346","id0015",1,6,0,0,"human","control",7,3,"CornflowerBlue","j","reject",0,376
"347","id0015",1,7,0,0,"human","control",5,5,"CornflowerBlue","f","accept",5,303
"348","id0015",1,8,0,0,"AI","control",7,3,"Orange","j","reject",0,278
"349","id0015",1,9,0,0,"human","control",5,5,"CornflowerBlue","f","accept",5,231
"350","id0015",1,10,0,0,"human","control",8,2,"CornflowerBlue","j","reject",0,310
"351","id0015",1,11,0,0,"AI","control",9,1,"Orange","j","reject",0,411
"352","id0015",1,12,0,0,"human","control",6,4,"CornflowerBlue","f","accept",4,2569
"353","id0015",1,13,0,0,"AI","control",6,4,"Orange","f","accept",4,248
"354","id0015",1,14,0,0,"AI","control",9,1,"Orange","j","reject",0,297
"355","id0015",1,15,0,0,"AI","control",5,5,"Orange","f","accept",5,358
"356","id0015",1,16,0,0,"AI","control",4,6,"Orange","f","accept",6,1114
"357","id0015",1,17,0,0,"AI","control",8,2,"Orange","j","reject",0,367
"358","id0015",1,18,0,0,"AI","control",4,6,"Orange","f","accept",6,616
"359","id0015",1,19,0,0,"human","control",4,6,"CornflowerBlue","f","accept",6,325
"360","id0015",1,20,0,0,"human","control",9,1,"CornflowerBlue","j","reject",0,336
"361","id0015",1,21,0,0,"human","control",8,2,"CornflowerBlue","j","reject",0,499
"362","id0015",1,22,0,0,"human","control",9,1,"CornflowerBlue","j","reject",0,351
"363","id0015",1,23,0,0,"human","control",4,6,"CornflowerBlue","f","accept",6,961
"364","id0015",1,24,0,0,"AI","control",5,5,"Orange","f","accept",5,268
"365","id0016",0,1,1,0,"practice","Practice",4,6,"black","f","accept",6,6961
"366","id0016",0,2,1,0,"practice","Practice",8,2,"black","j","reject",0,3256
"367","id0016",1,1,0,0,"AI","training_others",9,1,"Orange","j","reject",0,4853
"368","id0016",1,2,0,0,"human","training_others",9,1,"CornflowerBlue","j","reject",0,1650
"369","id0016",1,3,0,0,"AI","training_others",8,2,"Orange","j","reject",0,626
"370","id0016",1,4,0,0,"human","training_others",6,4,"CornflowerBlue","f","accept",4,82
"371","id0016",1,5,0,0,"AI","training_others",8,2,"Orange","j","reject",0,44
"372","id0016",1,6,0,0,"AI","training_others",9,1,"Orange","j","reject",0,28
"373","id0016",1,7,0,0,"human","training_others",8,2,"CornflowerBlue","j","reject",0,1346
"374","id0016",1,8,0,0,"AI","training_others",5,5,"Orange","f","accept",5,1792
"375","id0016",1,9,0,1,"AI","training_others",7,3,"Orange","j","reject",0,705
"376","id0016",1,10,0,0,"human","training_others",4,6,"CornflowerBlue","f","accept",6,1000
"377","id0016",1,11,0,0,"human","training_others",6,4,"CornflowerBlue","f","accept",4,216
"378","id0016",1,12,0,0,"AI","training_others",6,4,"Orange","f","accept",4,1305
"379","id0016",1,13,0,0,"human","training_others",7,3,"CornflowerBlue","j","reject",0,190
"380","id0016",1,14,0,0,"AI","training_others",4,6,"Orange","f","accept",6,45
"381","id0016",1,15,0,0,"AI","training_others",4,6,"Orange","f","accept",6,286
"382","id0016",1,16,0,0,"human","training_others",8,2,"CornflowerBlue","j","reject",0,1377
"383","id0016",1,17,0,0,"human","training_others",5,5,"CornflowerBlue","f","accept",5,825
"384","id0016",1,18,0,0,"human","training_others",9,1,"CornflowerBlue","j","reject",0,1081
"385","id0016",1,19,0,0,"AI","training_others",7,3,"Orange","j","reject",0,437
"386","id0016",1,20,0,0,"human","training_others",4,6,"CornflowerBlue","f","accept",6,405
"387","id0016",1,21,0,0,"human","training_others",7,3,"CornflowerBlue","j","reject",0,2138
"388","id0016",1,22,0,0,"AI","training_others",6,4,"Orange","f","accept",4,142
"389","id0016",1,23,0,0,"human","training_others",5,5,"CornflowerBlue","f","accept",5,351
"390","id0016",1,24,0,0,"AI","training_others",5,5,"Orange","f","accept",5,686
"391","id0017",0,1,1,0,"practice","Practice",5,5,"black","f","accept",5,161
"392","id0017",0,2,1,0,"practice","Practice",2,8,"black","f","accept",8,546
"393","id0017",1,1,0,0,"AI","training_others",8,2,"CornflowerBlue","j","reject",0,1254
"394","id0017",1,2,0,0,"human","training_others",6,4,"Orange","f","accept",4,504
"395","id0017",1,3,0,0,"AI","training_others",9,1,"CornflowerBlue","j","reject",0,287
"396","id0017",1,4,0,0,"AI","training_others",9,1,"CornflowerBlue","j","reject",0,394
"397","id0017",1,5,0,0,"AI","training_others",8,2,"CornflowerBlue","j","reject",0,460
"398","id0017",1,6,0,0,"human","training_others",8,2,"Orange","j","reject",0,426
"399","id0017",1,7,0,0,"AI","training_others",5,5,"CornflowerBlue","f","accept",5,261
"400","id0017",1,8,0,0,"AI","training_others",6,4,"CornflowerBlue","f","accept",4,482
"401","id0017",1,9,0,0,"human","training_others",7,3,"Orange","j","reject",0,253
"402","id0017",1,10,0,0,"human","training_others",7,3,"Orange","j","reject",0,694
"403","id0017",1,11,0,0,"AI","training_others",4,6,"CornflowerBlue","f","accept",6,1195
"404","id0017",1,12,0,1,"human","training_others",9,1,"Orange","j","reject",0,1158
"405","id0017",1,13,0,0,"human","training_others",6,4,"Orange","f","accept",4,375
"406","id0017",1,14,0,0,"human","training_others",9,1,"Orange","j","reject",0,388
"407","id0017",1,15,0,0,"AI","training_others",7,3,"CornflowerBlue","j","reject",0,364
"408","id0017",1,16,0,0,"human","training_others",5,5,"Orange","f","accept",5,395
"409","id0017",1,17,0,0,"human","training_others",5,5,"Orange","f","accept",5,480
"410","id0017",1,18,0,0,"human","training_others",8,2,"Orange","j","reject",0,1063
"411","id0017",1,19,0,0,"human","training_others",4,6,"Orange","f","accept",6,1213
"412","id0017",1,20,0,0,"AI","training_others",7,3,"CornflowerBlue","j","reject",0,497
"413","id0017",1,21,0,0,"AI","training_others",6,4,"CornflowerBlue","f","accept",4,305
"414","id0017",1,22,0,0,"AI","training_others",5,5,"CornflowerBlue","f","accept",5,4590
"415","id0017",1,23,0,0,"human","training_others",4,6,"Orange","f","accept",6,300
"416","id0017",1,24,0,0,"AI","training_others",4,6,"CornflowerBlue","f","accept",6,62
"417","id0018",0,1,1,0,"practice","Practice",8,2,"black","j","reject",0,375
"418","id0018",0,2,1,0,"practice","Practice",1,9,"black","f","accept",9,458
"419","id0018",1,1,0,0,"human","control",9,1,"Orange","j","reject",0,2072
"420","id0018",1,2,0,0,"human","control",9,1,"Orange","j","reject",0,578
"421","id0018",1,3,0,0,"AI","control",5,5,"CornflowerBlue","f","accept",5,501
"422","id0018",1,4,0,0,"AI","control",8,2,"CornflowerBlue","j","reject",0,344
"423","id0018",1,5,0,1,"AI","control",5,5,"CornflowerBlue","f","accept",5,373
"424","id0018",1,6,0,0,"AI","control",9,1,"CornflowerBlue","j","reject",0,656
"425","id0018",1,7,0,0,"AI","control",8,2,"CornflowerBlue","j","reject",0,180
"426","id0018",1,8,0,0,"human","control",4,6,"Orange","f","accept",6,499
"427","id0018",1,9,0,0,"AI","control",9,1,"CornflowerBlue","j","reject",0,462
"428","id0018",1,10,0,0,"human","control",5,5,"Orange","f","accept",5,720
"429","id0018",1,11,0,0,"human","control",4,6,"Orange","f","accept",6,436
"430","id0018",1,12,0,0,"human","control",7,3,"Orange","j","reject",0,383
"431","id0018",1,13,0,0,"human","control",6,4,"Orange","j","reject",0,497
"432","id0018",1,14,0,0,"AI","control",7,3,"CornflowerBlue","j","reject",0,426
"433","id0018",1,15,0,0,"AI","control",4,6,"CornflowerBlue","f","accept",6,391
"434","id0018",1,16,0,0,"AI","control",6,4,"CornflowerBlue","j","reject",0,542
"435","id0018",1,17,0,0,"human","control",8,2,"Orange","j","reject",0,419
"436","id0018",1,18,0,0,"AI","control",7,3,"CornflowerBlue","j","reject",0,1339
"437","id0018",1,19,0,0,"AI","control",4,6,"CornflowerBlue","f","accept",6,496
"438","id0018",1,20,0,0,"human","control",7,3,"Orange","j","reject",0,456
"439","id0018",1,21,0,0,"human","control",6,4,"Orange","j","reject",0,740
"440","id0018",1,22,0,0,"AI","control",6,4,"CornflowerBlue","j","reject",0,428
"441","id0018",1,23,0,0,"human","control",8,2,"Orange","j","reject",0,461
"442","id0018",1,24,0,0,"human","control",5,5,"Orange","f","accept",5,489
"443","id0019",0,1,1,0,"practice","Practice",9,1,"black","j","reject",0,828
"444","id0019",0,2,1,0,"practice","Practice",5,5,"black","f","accept",5,394
"445","id0019",1,1,0,0,"AI","training_others",7,3,"CornflowerBlue","j","reject",0,1394
"446","id0019",1,2,0,0,"AI","training_others",6,4,"CornflowerBlue","f","accept",4,3811
"447","id0019",1,3,0,0,"human","training_others",4,6,"Orange","f","accept",6,333
"448","id0019",1,4,0,0,"AI","training_others",8,2,"CornflowerBlue","j","reject",0,585
"449","id0019",1,5,0,0,"human","training_others",7,3,"Orange","j","reject",0,21
"450","id0019",1,6,0,0,"AI","training_others",4,6,"CornflowerBlue","f","accept",6,369
"451","id0019",1,7,0,0,"human","training_others",7,3,"Orange","j","reject",0,574
"452","id0019",1,8,0,0,"human","training_others",9,1,"Orange","j","reject",0,1378
"453","id0019",1,9,0,0,"human","training_others",5,5,"Orange","f","accept",5,3499
"454","id0019",1,10,0,0,"human","training_others",5,5,"Orange","f","accept",5,447
"455","id0019",1,11,0,1,"AI","training_others",5,5,"CornflowerBlue","f","accept",5,842
"456","id0019",1,12,0,0,"human","training_others",8,2,"Orange","j","reject",0,1591
"457","id0019",1,13,0,0,"human","training_others",6,4,"Orange","f","accept",4,2019
"458","id0019",1,14,0,0,"human","training_others",9,1,"Orange","j","reject",0,5521
"459","id0019",1,15,0,0,"human","training_others",4,6,"Orange","f","accept",6,706
"460","id0019",1,16,0,0,"AI","training_others",6,4,"CornflowerBlue","f","accept",4,850
"461","id0019",1,17,0,0,"human","training_others",8,2,"Orange","j","reject",0,957
"462","id0019",1,18,0,0,"AI","training_others",9,1,"CornflowerBlue","j","reject",0,48
"463","id0019",1,19,0,0,"human","training_others",6,4,"Orange","f","accept",4,2909
"464","id0019",1,20,0,0,"AI","training_others",4,6,"CornflowerBlue","f","accept",6,3960
"465","id0019",1,21,0,0,"AI","training_others",9,1,"CornflowerBlue","j","reject",0,443
"466","id0019",1,22,0,0,"AI","training_others",5,5,"CornflowerBlue","f","accept",5,389
"467","id0019",1,23,0,0,"AI","training_others",7,3,"CornflowerBlue","j","reject",0,1052
"468","id0019",1,24,0,0,"AI","training_others",8,2,"CornflowerBlue","j","reject",0,358
"469","id0020",0,1,1,0,"practice","Practice",10,0,"black","j","reject",0,3351
"470","id0020",0,2,1,0,"practice","Practice",7,3,"black","f","accept",3,1879
"471","id0020",1,1,0,0,"human","training_others",4,6,"Orange","f","accept",6,1783
"472","id0020",1,2,0,0,"AI","training_others",5,5,"CornflowerBlue","f","accept",5,761
"473","id0020",1,3,0,0,"AI","training_others",4,6,"CornflowerBlue","f","accept",6,787
"474","id0020",1,4,0,0,"AI","training_others",7,3,"CornflowerBlue","f","accept",3,595
"475","id0020",1,5,0,0,"human","training_others",5,5,"Orange","f","accept",5,523
"476","id0020",1,6,0,0,"human","training_others",9,1,"Orange","j","reject",0,2474
"477","id0020",1,7,0,0,"human","training_others",7,3,"Orange","f","accept",3,1366
"478","id0020",1,8,0,0,"human","training_others",6,4,"Orange","f","accept",4,916
"479","id0020",1,9,0,0,"AI","training_others",4,6,"CornflowerBlue","f","accept",6,306
"480","id0020",1,10,0,1,"AI","training_others",9,1,"CornflowerBlue","j","reject",0,1096
"481","id0020",1,11,0,0,"AI","training_others",9,1,"CornflowerBlue","j","reject",0,1049
"482","id0020",1,12,0,0,"human","training_others",7,3,"Orange","f","accept",3,899
"483","id0020",1,13,0,0,"AI","training_others",8,2,"CornflowerBlue","j","reject",0,545
"484","id0020",1,14,0,0,"human","training_others",6,4,"Orange","f","accept",4,1190
"485","id0020",1,15,0,0,"AI","training_others",7,3,"CornflowerBlue","f","accept",3,681
"486","id0020",1,16,0,0,"human","training_others",8,2,"Orange","j","reject",0,452
"487","id0020",1,17,0,0,"human","training_others",9,1,"Orange","j","reject",0,440
"488","id0020",1,18,0,0,"AI","training_others",8,2,"CornflowerBlue","j","reject",0,404
"489","id0020",1,19,0,0,"AI","training_others",6,4,"CornflowerBlue","f","accept",4,416
"490","id0020",1,20,0,0,"AI","training_others",6,4,"CornflowerBlue","f","accept",4,718
"491","id0020",1,21,0,0,"human","training_others",4,6,"Orange","f","accept",6,447
"492","id0020",1,22,0,0,"AI","training_others",5,5,"CornflowerBlue","f","accept",5,398
"493","id0020",1,23,0,0,"human","training_others",5,5,"Orange","f","accept",5,390
"494","id0020",1,24,0,0,"human","training_others",8,2,"Orange","j","reject",0,521
"495","id0021",0,1,1,0,"practice","Practice",3,7,"black","f","accept",7,634
"496","id0021",0,2,1,0,"practice","Practice",10,0,"black","j","reject",0,486
"497","id0021",1,1,0,0,"AI","training_others",8,2,"Orange","j","reject",0,1334
"498","id0021",1,2,0,0,"AI","training_others",5,5,"Orange","f","accept",5,304
"499","id0021",1,3,0,0,"AI","training_others",8,2,"Orange","j","reject",0,216
"500","id0021",1,4,0,0,"AI","training_others",4,6,"Orange","f","accept",6,355
"501","id0021",1,5,0,0,"AI","training_others",6,4,"Orange","f","accept",4,235
"502","id0021",1,6,0,0,"human","training_others",9,1,"CornflowerBlue","j","reject",0,379
"503","id0021",1,7,0,0,"human","training_others",9,1,"CornflowerBlue","j","reject",0,369
"504","id0021",1,8,0,0,"AI","training_others",9,1,"Orange","j","reject",0,642
"505","id0021",1,9,0,0,"human","training_others",5,5,"CornflowerBlue","f","accept",5,297
"506","id0021",1,10,0,0,"AI","training_others",9,1,"Orange","j","reject",0,290
"507","id0021",1,11,0,0,"AI","training_others",7,3,"Orange","j","reject",0,441
"508","id0021",1,12,0,0,"AI","training_others",6,4,"Orange","f","accept",4,300
"509","id0021",1,13,0,0,"human","training_others",5,5,"CornflowerBlue","f","accept",5,361
"510","id0021",1,14,0,1,"AI","training_others",4,6,"Orange","f","accept",6,357
"511","id0021",1,15,0,0,"human","training_others",7,3,"CornflowerBlue","j","reject",0,300
"512","id0021",1,16,0,0,"human","training_others",7,3,"CornflowerBlue","j","reject",0,327
"513","id0021",1,17,0,0,"AI","training_others",7,3,"Orange","j","reject",0,415
"514","id0021",1,18,0,0,"human","training_others",4,6,"CornflowerBlue","f","accept",6,283
"515","id0021",1,19,0,0,"human","training_others",6,4,"CornflowerBlue","f","accept",4,300
"516","id0021",1,20,0,0,"human","training_others",8,2,"CornflowerBlue","j","reject",0,353
"517","id0021",1,21,0,0,"human","training_others",8,2,"CornflowerBlue","j","reject",0,342
"518","id0021",1,22,0,0,"human","training_others",4,6,"CornflowerBlue","f","accept",6,318
"519","id0021",1,23,0,0,"AI","training_others",5,5,"Orange","f","accept",5,308
"520","id0021",1,24,0,0,"human","training_others",6,4,"CornflowerBlue","f","accept",4,327
"521","id0022",0,1,1,0,"practice","Practice",9,1,"black","f","accept",1,9711
"522","id0022",0,2,1,0,"practice","Practice",7,3,"black","f","accept",3,1118
"523","id0022",1,1,0,0,"human","control",8,2,"CornflowerBlue","f","accept",2,210
"524","id0022",1,2,0,0,"AI","control",9,1,"Orange","f","accept",1,1716
"525","id0022",1,3,0,0,"AI","control",7,3,"Orange","f","accept",3,55
"526","id0022",1,4,0,0,"AI","control",8,2,"Orange","f","accept",2,713
"527","id0022",1,5,0,0,"AI","control",4,6,"Orange","f","accept",6,434
"528","id0022",1,6,0,0,"human","control",5,5,"CornflowerBlue","f","accept",5,766
"529","id0022",1,7,0,0,"human","control",4,6,"CornflowerBlue","f","accept",6,342
"530","id0022",1,8,0,1,"human","control",6,4,"CornflowerBlue","f","accept",4,592
"531","id0022",1,9,0,0,"human","control",9,1,"CornflowerBlue","f","accept",1,649
"532","id0022",1,10,0,0,"AI","control",5,5,"Orange","f","accept",5,965
"533","id0022",1,11,0,0,"AI","control",9,1,"Orange","f","accept",1,885
"534","id0022",1,12,0,0,"human","control",6,4,"CornflowerBlue","f","accept",4,597
"535","id0022",1,13,0,0,"human","control",7,3,"CornflowerBlue","f","accept",3,883
"536","id0022",1,14,0,0,"human","control",8,2,"CornflowerBlue","f","accept",2,620
"537","id0022",1,15,0,0,"human","control",7,3,"CornflowerBlue","f","accept",3,618
"538","id0022",1,16,0,0,"AI","control",7,3,"Orange","f","accept",3,804
"539","id0022",1,17,0,0,"human","control",5,5,"CornflowerBlue","f","accept",5,617
"540","id0022",1,18,0,0,"AI","control",4,6,"Orange","f","accept",6,733
"541","id0022",1,19,0,0,"AI","control",8,2,"Orange","f","accept",2,603
"542","id0022",1,20,0,0,"human","control",4,6,"CornflowerBlue","f","accept",6,297
"543","id0022",1,21,0,0,"AI","control",5,5,"Orange","f","accept",5,918
"544","id0022",1,22,0,0,"human","control",9,1,"CornflowerBlue","f","accept",1,683
"545","id0022",1,23,0,0,"AI","control",6,4,"Orange","f","accept",4,703
"546","id0022",1,24,0,0,"AI","control",6,4,"Orange","f","accept",4,739
"547","id0023",0,1,1,0,"practice","Practice",10,0,"black","j","reject",0,1221
"548","id0023",0,2,1,0,"practice","Practice",6,4,"black","f","accept",4,950
"549","id0023",1,1,0,0,"AI","control",7,3,"CornflowerBlue","j","reject",0,862
"550","id0023",1,2,0,0,"AI","control",7,3,"CornflowerBlue","j","reject",0,758
"551","id0023",1,3,0,0,"human","control",4,6,"Orange","f","accept",6,743
"552","id0023",1,4,0,0,"AI","control",9,1,"CornflowerBlue","j","reject",0,615
"553","id0023",1,5,0,0,"human","control",6,4,"Orange","f","accept",4,593
"554","id0023",1,6,0,0,"AI","control",4,6,"CornflowerBlue","f","accept",6,648
"555","id0023",1,7,0,0,"AI","control",8,2,"CornflowerBlue","j","reject",0,473
"556","id0023",1,8,0,0,"AI","control",6,4,"CornflowerBlue","f","accept",4,410
"557","id0023",1,9,0,0,"human","control",8,2,"Orange","j","reject",0,722
"558","id0023",1,10,0,0,"AI","control",6,4,"CornflowerBlue","j","reject",0,217993
"559","id0023",1,11,0,0,"human","control",9,1,"Orange","j","reject",0,777
"560","id0023",1,12,0,0,"human","control",5,5,"Orange","f","accept",5,418
"561","id0023",1,13,0,0,"AI","control",8,2,"CornflowerBlue","j","reject",0,434
"562","id0023",1,14,0,0,"human","control",7,3,"Orange","f","accept",3,939
"563","id0023",1,15,0,0,"AI","control",4,6,"CornflowerBlue","f","accept",6,683
"564","id0023",1,16,0,1,"human","control",7,3,"Orange","j","reject",0,20
"565","id0023",1,17,0,0,"human","control",9,1,"Orange","j","reject",0,332
"566","id0023",1,18,0,0,"human","control",8,2,"Orange","j","reject",0,189
"567","id0023",1,19,0,0,"AI","control",5,5,"CornflowerBlue","f","accept",5,693
"568","id0023",1,20,0,0,"AI","control",9,1,"CornflowerBlue","j","reject",0,1389
"569","id0023",1,21,0,0,"human","control",5,5,"Orange","f","accept",5,590
"570","id0023",1,22,0,0,"human","control",4,6,"Orange","f","accept",6,638
"571","id0023",1,23,0,0,"human","control",6,4,"Orange","f","accept",4,927
"572","id0023",1,24,0,0,"AI","control",5,5,"CornflowerBlue","f","accept",5,463
"573","id0024",0,1,1,0,"practice","Practice",5,5,"black","f","accept",5,3390
"574","id0024",0,2,1,0,"practice","Practice",1,9,"black","j","reject",0,5240
"575","id0024",1,1,0,0,"AI","training_others",5,5,"Orange","f","accept",5,1900
"576","id0024",1,2,0,0,"AI","training_others",9,1,"Orange","j","reject",0,1131
"577","id0024",1,3,0,0,"human","training_others",7,3,"CornflowerBlue","j","reject",0,5486
"578","id0024",1,4,0,0,"human","training_others",4,6,"CornflowerBlue","f","accept",6,831
"579","id0024",1,5,0,0,"AI","training_others",6,4,"Orange","f","accept",4,1582
"580","id0024",1,6,0,0,"AI","training_others",8,2,"Orange","j","reject",0,1288
"581","id0024",1,7,0,0,"AI","training_others",5,5,"Orange","f","accept",5,543
"582","id0024",1,8,0,0,"AI","training_others",4,6,"Orange","f","accept",6,263
"583","id0024",1,9,0,0,"AI","training_others",9,1,"Orange","j","reject",0,742
"584","id0024",1,10,0,0,"human","training_others",9,1,"CornflowerBlue","j","reject",0,698
"585","id0024",1,11,0,0,"human","training_others",5,5,"CornflowerBlue","f","accept",5,486
"586","id0024",1,12,0,0,"AI","training_others",4,6,"Orange","f","accept",6,706
"587","id0024",1,13,0,1,"AI","training_others",8,2,"Orange","j","reject",0,437
"588","id0024",1,14,0,0,"human","training_others",8,2,"CornflowerBlue","j","reject",0,416
"589","id0024",1,15,0,0,"AI","training_others",7,3,"Orange","j","reject",0,398
"590","id0024",1,16,0,0,"AI","training_others",7,3,"Orange","j","reject",0,1534
"591","id0024",1,17,0,0,"human","training_others",5,5,"CornflowerBlue","f","accept",5,390
"592","id0024",1,18,0,0,"human","training_others",9,1,"CornflowerBlue","j","reject",0,410
"593","id0024",1,19,0,0,"human","training_others",6,4,"CornflowerBlue","f","accept",4,651
"594","id0024",1,20,0,0,"human","training_others",7,3,"CornflowerBlue","j","reject",0,391
"595","id0024",1,21,0,0,"human","training_others",6,4,"CornflowerBlue","f","accept",4,367
"596","id0024",1,22,0,0,"human","training_others",8,2,"CornflowerBlue","j","reject",0,373
"597","id0024",1,23,0,0,"AI","training_others",6,4,"Orange","f","accept",4,412
"598","id0024",1,24,0,0,"human","training_others",4,6,"CornflowerBlue","f","accept",6,437
"599","id0025",0,1,1,0,"practice","Practice",10,0,"black","f","accept",0,710
"600","id0025",0,2,1,0,"practice","Practice",7,3,"black","j","reject",0,823
"601","id0025",1,1,0,0,"AI","training_others",8,2,"Orange","f","accept",2,44
"602","id0025",1,2,0,0,"AI","training_others",4,6,"Orange","j","reject",0,1483
"603","id0025",1,3,0,0,"human","training_others",5,5,"CornflowerBlue","f","accept",5,475
"604","id0025",1,4,0,0,"human","training_others",4,6,"CornflowerBlue","f","accept",6,895
"605","id0025",1,5,0,0,"AI","training_others",5,5,"Orange","f","accept",5,1756
"606","id0025",1,6,0,0,"AI","training_others",7,3,"Orange","f","accept",3,1199
"607","id0025",1,7,0,0,"human","training_others",8,2,"CornflowerBlue","f","accept",2,552
"608","id0025",1,8,0,0,"AI","training_others",5,5,"Orange","f","accept",5,144
"609","id0025",1,9,0,0,"human","training_others",5,5,"CornflowerBlue","f","accept",5,1216
"610","id0025",1,10,0,0,"human","training_others",9,1,"CornflowerBlue","f","accept",1,1241
"611","id0025",1,11,0,0,"human","training_others",4,6,"CornflowerBlue","j","reject",0,1151
"612","id0025",1,12,0,0,"AI","training_others",8,2,"Orange","f","accept",2,1010
"613","id0025",1,13,0,0,"AI","training_others",6,4,"Orange","f","accept",4,713
"614","id0025",1,14,0,0,"human","training_others",6,4,"CornflowerBlue","f","accept",4,765
"615","id0025",1,15,0,0,"human","training_others",8,2,"CornflowerBlue","f","accept",2,170
"616","id0025",1,16,0,0,"human","training_others",9,1,"CornflowerBlue","f","accept",1,729
"617","id0025",1,17,0,0,"human","training_others",7,3,"CornflowerBlue","f","accept",3,895
"618","id0025",1,18,0,0,"AI","training_others",9,1,"Orange","f","accept",1,351
"619","id0025",1,19,0,0,"AI","training_others",4,6,"Orange","j","reject",0,1010
"620","id0025",1,20,0,0,"human","training_others",7,3,"CornflowerBlue","f","accept",3,775
"621","id0025",1,21,0,0,"human","training_others",6,4,"CornflowerBlue","f","accept",4,810
"622","id0025",1,22,0,0,"AI","training_others",7,3,"Orange","f","accept",3,1017
"623","id0025",1,23,0,0,"AI","training_others",6,4,"Orange","f","accept",4,635
"624","id0025",1,24,0,1,"AI","training_others",9,1,"Orange","f","accept",1,765
"625","id0026",0,1,1,0,"practice","Practice",9,1,"black","j","reject",0,231
"626","id0026",0,2,1,0,"practice","Practice",2,8,"black","f","accept",8,267
"627","id0026",1,1,0,0,"human","control",4,6,"CornflowerBlue","f","accept",6,212
"628","id0026",1,2,0,0,"AI","control",5,5,"Orange","f","accept",5,60
"629","id0026",1,3,0,0,"human","control",6,4,"CornflowerBlue","f","accept",4,261
"630","id0026",1,4,0,0,"human","control",9,1,"CornflowerBlue","j","reject",0,66
"631","id0026",1,5,0,1,"human","control",9,1,"CornflowerBlue","j","reject",0,56
"632","id0026",1,6,0,0,"AI","control",9,1,"Orange","j","reject",0,68
"633","id0026",1,7,0,0,"AI","control",7,3,"Orange","j","reject",0,10
"634","id0026",1,8,0,0,"human","control",8,2,"CornflowerBlue","j","reject",0,138
"635","id0026",1,9,0,0,"AI","control",4,6,"Orange","j","reject",0,390
"636","id0026",1,10,0,0,"AI","control",9,1,"Orange","j","reject",0,13
"637","id0026",1,11,0,0,"AI","control",5,5,"Orange","f","accept",5,72
"638","id0026",1,12,0,0,"human","control",5,5,"CornflowerBlue","f","accept",5,130
"639","id0026",1,13,0,0,"AI","control",4,6,"Orange","f","accept",6,102
"640","id0026",1,14,0,0,"human","control",4,6,"CornflowerBlue","f","accept",6,418
"641","id0026",1,15,0,0,"human","control",7,3,"CornflowerBlue","j","reject",0,139
"642","id0026",1,16,0,0,"AI","control",7,3,"Orange","j","reject",0,780
"643","id0026",1,17,0,0,"AI","control",6,4,"Orange","j","reject",0,90
"644","id0026",1,18,0,0,"AI","control",8,2,"Orange","f","accept",2,244
"645","id0026",1,19,0,0,"human","control",6,4,"CornflowerBlue","j","reject",0,58
"646","id0026",1,20,0,0,"human","control",8,2,"CornflowerBlue","j","reject",0,14
"647","id0026",1,21,0,0,"AI","control",6,4,"Orange","f","accept",4,134
"648","id0026",1,22,0,0,"AI","control",8,2,"Orange","j","reject",0,8
"649","id0026",1,23,0,0,"human","control",5,5,"CornflowerBlue","f","accept",5,110
"650","id0026",1,24,0,0,"human","control",7,3,"CornflowerBlue","f","accept",3,25
"651","id0027",0,1,1,0,"practice","Practice",10,0,"black","j","reject",0,392
"652","id0027",0,2,1,0,"practice","Practice",1,9,"black","f","accept",9,821
"653","id0027",1,1,0,0,"AI","training_others",7,3,"Orange","j","reject",0,583
"654","id0027",1,2,0,0,"human","training_others",6,4,"CornflowerBlue","f","accept",4,941
"655","id0027",1,3,0,0,"AI","training_others",5,5,"Orange","f","accept",5,470
"656","id0027",1,4,0,0,"AI","training_others",8,2,"Orange","j","reject",0,266
"657","id0027",1,5,0,1,"AI","training_others",6,4,"Orange","j","reject",0,427
"658","id0027",1,6,0,0,"human","training_others",4,6,"CornflowerBlue","f","accept",6,291
"659","id0027",1,7,0,0,"human","training_others",9,1,"CornflowerBlue","j","reject",0,110
"660","id0027",1,8,0,0,"AI","training_others",6,4,"Orange","j","reject",0,172
"661","id0027",1,9,0,0,"AI","training_others",5,5,"Orange","f","accept",5,317
"662","id0027",1,10,0,0,"AI","training_others",9,1,"Orange","j","reject",0,263
"663","id0027",1,11,0,0,"human","training_others",9,1,"CornflowerBlue","j","reject",0,313
"664","id0027",1,12,0,0,"human","training_others",5,5,"CornflowerBlue","f","accept",5,20
"665","id0027",1,13,0,0,"human","training_others",4,6,"CornflowerBlue","f","accept",6,749
"666","id0027",1,14,0,0,"AI","training_others",7,3,"Orange","j","reject",0,12
"667","id0027",1,15,0,0,"AI","training_others",4,6,"Orange","f","accept",6,103
"668","id0027",1,16,0,0,"human","training_others",6,4,"CornflowerBlue","j","reject",0,58
"669","id0027",1,17,0,0,"human","training_others",8,2,"CornflowerBlue","j","reject",0,210
"670","id0027",1,18,0,0,"human","training_others",8,2,"CornflowerBlue","j","reject",0,306
"671","id0027",1,19,0,0,"human","training_others",7,3,"CornflowerBlue","j","reject",0,132
"672","id0027",1,20,0,0,"AI","training_others",8,2,"Orange","j","reject",0,191
"673","id0027",1,21,0,0,"human","training_others",7,3,"CornflowerBlue","j","reject",0,122
"674","id0027",1,22,0,0,"AI","training_others",4,6,"Orange","f","accept",6,283
"675","id0027",1,23,0,0,"AI","training_others",9,1,"Orange","j","reject",0,176
"676","id0027",1,24,0,0,"human","training_others",5,5,"CornflowerBlue","f","accept",5,430
"677","id0028",0,1,1,0,"practice","Practice",9,1,"black","j","reject",0,979
"678","id0028",0,2,1,0,"practice","Practice",2,8,"black","f","accept",8,845
"679","id0028",1,1,0,0,"human","control",8,2,"CornflowerBlue","j","reject",0,424
"680","id0028",1,2,0,0,"human","control",7,3,"CornflowerBlue","j","reject",0,432
"681","id0028",1,3,0,0,"AI","control",5,5,"Orange","f","accept",5,320
"682","id0028",1,4,0,1,"human","control",9,1,"CornflowerBlue","j","reject",0,344
"683","id0028",1,5,0,0,"AI","control",8,2,"Orange","j","reject",0,472
"684","id0028",1,6,0,0,"human","control",4,6,"CornflowerBlue","f","accept",6,527
"685","id0028",1,7,0,0,"human","control",9,1,"CornflowerBlue","j","reject",0,458
"686","id0028",1,8,0,0,"human","control",4,6,"CornflowerBlue","f","accept",6,3439
"687","id0028",1,9,0,0,"AI","control",5,5,"Orange","f","accept",5,352
"688","id0028",1,10,0,0,"AI","control",9,1,"Orange","j","reject",0,1107
"689","id0028",1,11,0,0,"AI","control",7,3,"Orange","f","accept",3,430
"690","id0028",1,12,0,0,"AI","control",4,6,"Orange","f","accept",6,495
"691","id0028",1,13,0,0,"AI","control",6,4,"Orange","f","accept",4,335
"692","id0028",1,14,0,0,"human","control",7,3,"CornflowerBlue","j","reject",0,440
"693","id0028",1,15,0,0,"human","control",5,5,"CornflowerBlue","f","accept",5,465
"694","id0028",1,16,0,0,"AI","control",8,2,"Orange","j","reject",0,424
"695","id0028",1,17,0,0,"AI","control",6,4,"Orange","f","accept",4,441
"696","id0028",1,18,0,0,"human","control",6,4,"CornflowerBlue","f","accept",4,9597
"697","id0028",1,19,0,0,"AI","control",4,6,"Orange","f","accept",6,1256
"698","id0028",1,20,0,0,"human","control",5,5,"CornflowerBlue","f","accept",5,886
"699","id0028",1,21,0,0,"AI","control",7,3,"Orange","f","accept",3,815
"700","id0028",1,22,0,0,"human","control",6,4,"CornflowerBlue","f","accept",4,472
"701","id0028",1,23,0,0,"human","control",8,2,"CornflowerBlue","f","accept",2,657
"702","id0028",1,24,0,0,"AI","control",9,1,"Orange","j","reject",0,1518
"703","id0029",0,1,1,0,"practice","Practice",10,0,"black","j","reject",0,3597
"704","id0029",0,2,1,0,"practice","Practice",5,5,"black","f","accept",5,1274
"705","id0029",1,1,0,0,"AI","training_others",7,3,"Orange","f","accept",3,2819
"706","id0029",1,2,0,0,"human","training_others",6,4,"CornflowerBlue","f","accept",4,952
"707","id0029",1,3,0,0,"AI","training_others",9,1,"Orange","j","reject",0,1521
"708","id0029",1,4,0,0,"AI","training_others",8,2,"Orange","j","reject",0,706
"709","id0029",1,5,0,0,"human","training_others",5,5,"CornflowerBlue","f","accept",5,473
"710","id0029",1,6,0,0,"human","training_others",9,1,"CornflowerBlue","j","reject",0,1323
"711","id0029",1,7,0,0,"human","training_others",4,6,"CornflowerBlue","f","accept",6,521
"712","id0029",1,8,0,0,"AI","training_others",4,6,"Orange","f","accept",6,509
"713","id0029",1,9,0,1,"human","training_others",8,2,"CornflowerBlue","j","reject",0,1250
"714","id0029",1,10,0,0,"human","training_others",8,2,"CornflowerBlue","j","reject",0,587
"715","id0029",1,11,0,0,"human","training_others",4,6,"CornflowerBlue","f","accept",6,1870
"716","id0029",1,12,0,0,"AI","training_others",9,1,"Orange","j","reject",0,64822
"717","id0029",1,13,0,0,"human","training_others",7,3,"CornflowerBlue","j","reject",0,19081
"718","id0029",1,14,0,0,"AI","training_others",7,3,"Orange","f","accept",3,3801
"719","id0029",1,15,0,0,"AI","training_others",6,4,"Orange","j","reject",0,3502
"720","id0029",1,16,0,0,"human","training_others",7,3,"CornflowerBlue","j","reject",0,4804
"721","id0029",1,17,0,0,"human","training_others",6,4,"CornflowerBlue","j","reject",0,76491
"722","id0029",1,18,0,0,"AI","training_others",6,4,"Orange","f","accept",4,31442
"723","id0029",1,19,0,0,"human","training_others",5,5,"CornflowerBlue","f","accept",5,902
"724","id0029",1,20,0,0,"AI","training_others",4,6,"Orange","j","reject",0,1944
"725","id0029",1,21,0,0,"AI","training_others",8,2,"Orange","f","accept",2,2813
"726","id0029",1,22,0,0,"AI","training_others",5,5,"Orange","f","accept",5,179
"727","id0029",1,23,0,0,"human","training_others",9,1,"CornflowerBlue","j","reject",0,2602
"728","id0029",1,24,0,0,"AI","training_others",5,5,"Orange","f","accept",5,500
"729","id0030",0,1,1,0,"practice","Practice",9,1,"black","j","reject",0,1621
"730","id0030",0,2,1,0,"practice","Practice",9,1,"black","j","reject",0,549
"731","id0030",1,1,0,0,"human","control",4,6,"Orange","f","accept",6,1635
"732","id0030",1,2,0,0,"human","control",5,5,"Orange","f","accept",5,753
"733","id0030",1,3,0,0,"AI","control",6,4,"CornflowerBlue","f","accept",4,379
"734","id0030",1,4,0,0,"AI","control",5,5,"CornflowerBlue","f","accept",5,482
"735","id0030",1,5,0,0,"AI","control",4,6,"CornflowerBlue","f","accept",6,806
"736","id0030",1,6,0,0,"AI","control",5,5,"CornflowerBlue","f","accept",5,495
"737","id0030",1,7,0,0,"AI","control",6,4,"CornflowerBlue","f","accept",4,760
"738","id0030",1,8,0,0,"human","control",8,2,"Orange","j","reject",0,492
"739","id0030",1,9,0,0,"AI","control",8,2,"CornflowerBlue","j","reject",0,663
"740","id0030",1,10,0,0,"human","control",7,3,"Orange","j","reject",0,997
"741","id0030",1,11,0,0,"AI","control",8,2,"CornflowerBlue","j","reject",0,450
"742","id0030",1,12,0,0,"AI","control",9,1,"CornflowerBlue","j","reject",0,536
"743","id0030",1,13,0,0,"AI","control",7,3,"CornflowerBlue","j","reject",0,1856
"744","id0030",1,14,0,1,"human","control",9,1,"Orange","j","reject",0,503
"745","id0030",1,15,0,0,"human","control",5,5,"Orange","f","accept",5,526
"746","id0030",1,16,0,0,"human","control",4,6,"Orange","f","accept",6,405
"747","id0030",1,17,0,0,"human","control",6,4,"Orange","f","accept",4,547
"748","id0030",1,18,0,0,"AI","control",4,6,"CornflowerBlue","f","accept",6,405
"749","id0030",1,19,0,0,"AI","control",9,1,"CornflowerBlue","j","reject",0,411
"750","id0030",1,20,0,0,"human","control",9,1,"Orange","j","reject",0,381
"751","id0030",1,21,0,0,"human","control",6,4,"Orange","f","accept",4,344
"752","id0030",1,22,0,0,"human","control",7,3,"Orange","f","accept",3,405
"753","id0030",1,23,0,0,"human","control",8,2,"Orange","j","reject",0,379
"754","id0030",1,24,0,0,"AI","control",7,3,"CornflowerBlue","j","reject",0,3792
"755","id0031",0,1,1,0,"practice","Practice",5,5,"black","f","accept",5,530
"756","id0031",0,2,1,0,"practice","Practice",10,0,"black","j","reject",0,585
"757","id0031",1,1,0,1,"human","control",8,2,"CornflowerBlue","f","accept",2,573
"758","id0031",1,2,0,0,"AI","control",9,1,"Orange","f","accept",1,424
"759","id0031",1,3,0,0,"AI","control",8,2,"Orange","f","accept",2,423
"760","id0031",1,4,0,0,"human","control",5,5,"CornflowerBlue","f","accept",5,1750
"761","id0031",1,5,0,0,"human","control",6,4,"CornflowerBlue","f","accept",4,625
"762","id0031",1,6,0,0,"human","control",4,6,"CornflowerBlue","f","accept",6,952
"763","id0031",1,7,0,0,"AI","control",7,3,"Orange","f","accept",3,534
"764","id0031",1,8,0,0,"AI","control",8,2,"Orange","f","accept",2,655
"765","id0031",1,9,0,0,"AI","control",4,6,"Orange","f","accept",6,561
"766","id0031",1,10,0,0,"human","control",7,3,"CornflowerBlue","f","accept",3,324
"767","id0031",1,11,0,0,"AI","control",6,4,"Orange","f","accept",4,334
"768","id0031",1,12,0,0,"human","control",5,5,"CornflowerBlue","f","accept",5,328
"769","id0031",1,13,0,0,"AI","control",4,6,"Orange","f","accept",6,282
"770","id0031",1,14,0,0,"AI","control",9,1,"Orange","f","accept",1,313
"771","id0031",1,15,0,0,"human","control",9,1,"CornflowerBlue","j","reject",0,314
"772","id0031",1,16,0,0,"human","control",8,2,"CornflowerBlue","f","accept",2,372
"773","id0031",1,17,0,0,"AI","control",5,5,"Orange","f","accept",5,1117
"774","id0031",1,18,0,0,"AI","control",6,4,"Orange","f","accept",4,414
"775","id0031",1,19,0,0,"human","control",7,3,"CornflowerBlue","f","accept",3,317
"776","id0031",1,20,0,0,"human","control",4,6,"CornflowerBlue","f","accept",6,331
"777","id0031",1,21,0,0,"human","control",6,4,"CornflowerBlue","f","accept",4,390
"778","id0031",1,22,0,0,"human","control",9,1,"CornflowerBlue","j","reject",0,363
"779","id0031",1,23,0,0,"AI","control",5,5,"Orange","f","accept",5,425
"780","id0031",1,24,0,0,"AI","control",7,3,"Orange","f","accept",3,607
"781","id0032",0,1,1,0,"practice","Practice",8,2,"black","f","accept",2,3540
"782","id0032",0,2,1,0,"practice","Practice",10,0,"black","j","reject",0,313
"783","id0032",1,1,0,0,"AI","training_others",6,4,"Orange","f","accept",4,743
"784","id0032",1,2,0,0,"AI","training_others",7,3,"Orange","f","accept",3,2042
"785","id0032",1,3,0,0,"AI","training_others",4,6,"Orange","f","accept",6,1523
"786","id0032",1,4,0,0,"human","training_others",5,5,"CornflowerBlue","f","accept",5,1076
"787","id0032",1,5,0,0,"AI","training_others",6,4,"Orange","f","accept",4,720
"788","id0032",1,6,0,0,"human","training_others",4,6,"CornflowerBlue","f","accept",6,727
"789","id0032",1,7,0,0,"human","training_others",6,4,"CornflowerBlue","f","accept",4,210
"790","id0032",1,8,0,0,"AI","training_others",8,2,"Orange","j","reject",0,29
"791","id0032",1,9,0,0,"AI","training_others",8,2,"Orange","j","reject",0,726
"792","id0032",1,10,0,0,"human","training_others",8,2,"CornflowerBlue","j","reject",0,332
"793","id0032",1,11,0,0,"human","training_others",9,1,"CornflowerBlue","j","reject",0,339
"794","id0032",1,12,0,0,"human","training_others",9,1,"CornflowerBlue","j","reject",0,15
"795","id0032",1,13,0,0,"human","training_others",4,6,"CornflowerBlue","f","accept",6,326
"796","id0032",1,14,0,0,"AI","training_others",5,5,"Orange","f","accept",5,226
"797","id0032",1,15,0,0,"human","training_others",7,3,"CornflowerBlue","f","accept",3,825
"798","id0032",1,16,0,0,"human","training_others",6,4,"CornflowerBlue","f","accept",4,409
"799","id0032",1,17,0,0,"AI","training_others",7,3,"Orange","f","accept",3,485
"800","id0032",1,18,0,0,"AI","training_others",4,6,"Orange","f","accept",6,493
"801","id0032",1,19,0,0,"AI","training_others",9,1,"Orange","j","reject",0,498
"802","id0032",1,20,0,1,"human","training_others",8,2,"CornflowerBlue","j","reject",0,386
"803","id0032",1,21,0,0,"human","training_others",5,5,"CornflowerBlue","f","accept",5,1427
"804","id0032",1,22,0,0,"AI","training_others",9,1,"Orange","j","reject",0,867
"805","id0032",1,23,0,0,"human","training_others",7,3,"CornflowerBlue","f","accept",3,328
"806","id0032",1,24,0,0,"AI","training_others",5,5,"Orange","f","accept",5,1407
"807","id0033",0,1,1,0,"practice","Practice",5,5,"black","f","accept",5,8
"808","id0033",0,2,1,0,"practice","Practice",5,5,"black","f","accept",5,23
"809","id0033",1,1,0,0,"AI","control",4,6,"Orange","f","accept",6,241
"810","id0033",1,2,0,0,"human","control",7,3,"CornflowerBlue","f","accept",3,551
"811","id0033",1,3,0,0,"human","control",7,3,"CornflowerBlue","f","accept",3,51
"812","id0033",1,4,0,0,"human","control",4,6,"CornflowerBlue","f","accept",6,498
"813","id0033",1,5,0,0,"AI","control",8,2,"Orange","f","accept",2,37
"814","id0033",1,6,0,0,"human","control",8,2,"CornflowerBlue","f","accept",2,767
"815","id0033",1,7,0,0,"human","control",6,4,"CornflowerBlue","f","accept",4,366
"816","id0033",1,8,0,0,"human","control",4,6,"CornflowerBlue","f","accept",6,71
"817","id0033",1,9,0,0,"human","control",9,1,"CornflowerBlue","j","reject",0,538
"818","id0033",1,10,0,0,"AI","control",5,5,"Orange","f","accept",5,250
"819","id0033",1,11,0,0,"AI","control",7,3,"Orange","f","accept",3,94
"820","id0033",1,12,0,0,"AI","control",7,3,"Orange","f","accept",3,340
"821","id0033",1,13,0,1,"human","control",8,2,"CornflowerBlue","f","accept",2,394
"822","id0033",1,14,0,0,"human","control",6,4,"CornflowerBlue","f","accept",4,1120
"823","id0033",1,15,0,0,"human","control",5,5,"CornflowerBlue","f","accept",5,392
"824","id0033",1,16,0,0,"human","control",5,5,"CornflowerBlue","f","accept",5,742
"825","id0033",1,17,0,0,"AI","control",5,5,"Orange","f","accept",5,649
"826","id0033",1,18,0,0,"AI","control",9,1,"Orange","f","accept",1,826
"827","id0033",1,19,0,0,"AI","control",6,4,"Orange","f","accept",4,648
"828","id0033",1,20,0,0,"human","control",9,1,"CornflowerBlue","j","reject",0,689
"829","id0033",1,21,0,0,"AI","control",6,4,"Orange","f","accept",4,328
"830","id0033",1,22,0,0,"AI","control",9,1,"Orange","j","reject",0,338
"831","id0033",1,23,0,0,"AI","control",4,6,"Orange","f","accept",6,145
"832","id0033",1,24,0,0,"AI","control",8,2,"Orange","f","accept",2,295
"833","id0034",0,1,1,0,"practice","Practice",3,7,"black","f","accept",7,956
"834","id0034",0,2,1,0,"practice","Practice",4,6,"black","f","accept",6,460
"835","id0034",1,1,0,0,"human","control",9,1,"Orange","j","reject",0,687
"836","id0034",1,2,0,0,"AI","control",8,2,"CornflowerBlue","f","accept",2,716
"837","id0034",1,3,0,0,"AI","control",7,3,"CornflowerBlue","f","accept",3,456
"838","id0034",1,4,0,1,"human","control",6,4,"Orange","f","accept",4,472
"839","id0034",1,5,0,0,"AI","control",6,4,"CornflowerBlue","f","accept",4,462
"840","id0034",1,6,0,0,"human","control",8,2,"Orange","f","accept",2,437
"841","id0034",1,7,0,0,"human","control",5,5,"Orange","f","accept",5,411
"842","id0034",1,8,0,0,"human","control",6,4,"Orange","f","accept",4,394
"843","id0034",1,9,0,0,"AI","control",4,6,"CornflowerBlue","f","accept",6,407
"844","id0034",1,10,0,0,"human","control",7,3,"Orange","f","accept",3,520
"845","id0034",1,11,0,0,"AI","control",4,6,"CornflowerBlue","f","accept",6,412
"846","id0034",1,12,0,0,"human","control",5,5,"Orange","f","accept",5,365
"847","id0034",1,13,0,0,"AI","control",8,2,"CornflowerBlue","f","accept",2,372
"848","id0034",1,14,0,0,"AI","control",6,4,"CornflowerBlue","f","accept",4,680
"849","id0034",1,15,0,0,"human","control",4,6,"Orange","f","accept",6,588
"850","id0034",1,16,0,0,"human","control",7,3,"Orange","f","accept",3,607
"851","id0034",1,17,0,0,"AI","control",5,5,"CornflowerBlue","f","accept",5,358
"852","id0034",1,18,0,0,"human","control",8,2,"Orange","f","accept",2,711
"853","id0034",1,19,0,0,"AI","control",9,1,"CornflowerBlue","f","accept",1,368
"854","id0034",1,20,0,0,"human","control",4,6,"Orange","f","accept",6,371
"855","id0034",1,21,0,0,"AI","control",5,5,"CornflowerBlue","f","accept",5,739
"856","id0034",1,22,0,0,"human","control",9,1,"Orange","f","accept",1,765
"857","id0034",1,23,0,0,"AI","control",9,1,"CornflowerBlue","f","accept",1,603
"858","id0034",1,24,0,0,"AI","control",7,3,"CornflowerBlue","f","accept",3,355
"859","id0036",0,1,1,0,"practice","Practice",2,8,"black","j","reject",0,1679
"860","id0036",0,2,1,0,"practice","Practice",7,3,"black","j","reject",0,370
"861","id0036",1,1,0,0,"AI","training_others",5,5,"Orange","f","accept",5,345
"862","id0036",1,2,0,0,"human","training_others",9,1,"CornflowerBlue","j","reject",0,701
"863","id0036",1,3,0,0,"human","training_others",5,5,"CornflowerBlue","f","accept",5,118
"864","id0036",1,4,0,0,"human","training_others",4,6,"CornflowerBlue","f","accept",6,570
"865","id0036",1,5,0,0,"AI","training_others",4,6,"Orange","f","accept",6,54
"866","id0036",1,6,0,0,"human","training_others",7,3,"CornflowerBlue","j","reject",0,152
"867","id0036",1,7,0,0,"human","training_others",6,4,"CornflowerBlue","j","reject",0,81
"868","id0036",1,8,0,0,"AI","training_others",8,2,"Orange","j","reject",0,185
"869","id0036",1,9,0,0,"human","training_others",8,2,"CornflowerBlue","j","reject",0,51
"870","id0036",1,10,0,0,"AI","training_others",9,1,"Orange","j","reject",0,135
"871","id0036",1,11,0,0,"AI","training_others",8,2,"Orange","j","reject",0,144
"872","id0036",1,12,0,0,"AI","training_others",9,1,"Orange","j","reject",0,111
"873","id0036",1,13,0,0,"human","training_others",6,4,"CornflowerBlue","j","reject",0,95
"874","id0036",1,14,0,0,"human","training_others",7,3,"CornflowerBlue","j","reject",0,128
"875","id0036",1,15,0,0,"human","training_others",9,1,"CornflowerBlue","j","reject",0,16
"876","id0036",1,16,0,0,"AI","training_others",6,4,"Orange","j","reject",0,45
"877","id0036",1,17,0,0,"AI","training_others",7,3,"Orange","j","reject",0,239
"878","id0036",1,18,0,0,"AI","training_others",4,6,"Orange","f","accept",6,75
"879","id0036",1,19,0,0,"AI","training_others",6,4,"Orange","j","reject",0,183
"880","id0036",1,20,0,0,"human","training_others",8,2,"CornflowerBlue","j","reject",0,92
"881","id0036",1,21,0,0,"AI","training_others",5,5,"Orange","f","accept",5,128
"882","id0036",1,22,0,0,"AI","training_others",7,3,"Orange","j","reject",0,191
"883","id0036",1,23,0,1,"human","training_others",4,6,"CornflowerBlue","f","accept",6,136
"884","id0036",1,24,0,0,"human","training_others",5,5,"CornflowerBlue","f","accept",5,133
"885","id0037",0,1,1,0,"practice","Practice",3,7,"black","f","accept",7,202
"886","id0037",0,2,1,0,"practice","Practice",4,6,"black","f","accept",6,313
"887","id0037",1,1,0,0,"human","training_others",4,6,"CornflowerBlue","f","accept",6,13
"888","id0037",1,2,0,0,"human","training_others",8,2,"CornflowerBlue","f","accept",2,636
"889","id0037",1,3,0,0,"AI","training_others",8,2,"Orange","j","reject",0,1463
"890","id0037",1,4,0,0,"AI","training_others",4,6,"Orange","f","accept",6,855
"891","id0037",1,5,0,1,"AI","training_others",9,1,"Orange","j","reject",0,833
"892","id0037",1,6,0,0,"human","training_others",9,1,"CornflowerBlue","f","accept",1,595
"893","id0037",1,7,0,0,"AI","training_others",4,6,"Orange","f","accept",6,695
"894","id0037",1,8,0,0,"AI","training_others",6,4,"Orange","f","accept",4,693
"895","id0037",1,9,0,0,"human","training_others",8,2,"CornflowerBlue","f","accept",2,451
"896","id0037",1,10,0,0,"human","training_others",6,4,"CornflowerBlue","f","accept",4,349
"897","id0037",1,11,0,0,"human","training_others",9,1,"CornflowerBlue","j","reject",0,1335
"898","id0037",1,12,0,0,"human","training_others",7,3,"CornflowerBlue","j","reject",0,389
"899","id0037",1,13,0,0,"human","training_others",5,5,"CornflowerBlue","f","accept",5,427
"900","id0037",1,14,0,0,"AI","training_others",7,3,"Orange","j","reject",0,285
"901","id0037",1,15,0,0,"human","training_others",7,3,"CornflowerBlue","f","accept",3,923
"902","id0037",1,16,0,0,"human","training_others",6,4,"CornflowerBlue","f","accept",4,295
"903","id0037",1,17,0,0,"AI","training_others",5,5,"Orange","f","accept",5,166
"904","id0037",1,18,0,0,"human","training_others",5,5,"CornflowerBlue","f","accept",5,240
"905","id0037",1,19,0,0,"AI","training_others",5,5,"Orange","f","accept",5,87
"906","id0037",1,20,0,0,"human","training_others",4,6,"CornflowerBlue","f","accept",6,148
"907","id0037",1,21,0,0,"AI","training_others",8,2,"Orange","j","reject",0,89
"908","id0037",1,22,0,0,"AI","training_others",9,1,"Orange","j","reject",0,416
"909","id0037",1,23,0,0,"AI","training_others",6,4,"Orange","f","accept",4,427
"910","id0037",1,24,0,0,"AI","training_others",7,3,"Orange","j","reject",0,351
"911","id0038",0,1,1,0,"practice","Practice",7,3,"black","f","accept",3,37026
"912","id0038",0,2,1,0,"practice","Practice",1,9,"black","j","reject",0,9266
"913","id0038",1,1,0,0,"AI","training_others",7,3,"Orange","j","reject",0,3847
"914","id0038",1,2,0,0,"AI","training_others",5,5,"Orange","j","reject",0,4413
"915","id0038",1,3,0,0,"human","training_others",7,3,"CornflowerBlue","f","accept",3,2096
"916","id0038",1,4,0,0,"human","training_others",5,5,"CornflowerBlue","f","accept",5,1695
"917","id0038",1,5,0,0,"AI","training_others",4,6,"Orange","f","accept",6,500
"918","id0038",1,6,0,0,"human","training_others",9,1,"CornflowerBlue","j","reject",0,1042
"919","id0038",1,7,0,0,"AI","training_others",9,1,"Orange","f","accept",1,4861
"920","id0038",1,8,0,0,"human","training_others",7,3,"CornflowerBlue","j","reject",0,555
"921","id0038",1,9,0,0,"human","training_others",6,4,"CornflowerBlue","j","reject",0,3081
"922","id0038",1,10,0,1,"AI","training_others",6,4,"Orange","f","accept",4,5574
"923","id0038",1,11,0,0,"AI","training_others",5,5,"Orange","f","accept",5,615
"924","id0038",1,12,0,0,"human","training_others",4,6,"CornflowerBlue","f","accept",6,2083
"925","id0038",1,13,0,0,"AI","training_others",4,6,"Orange","f","accept",6,174
"926","id0038",1,14,0,0,"AI","training_others",8,2,"Orange","j","reject",0,915
"927","id0038",1,15,0,0,"human","training_others",8,2,"CornflowerBlue","j","reject",0,3841
"928","id0038",1,16,0,0,"human","training_others",5,5,"CornflowerBlue","f","accept",5,623
"929","id0038",1,17,0,0,"human","training_others",8,2,"CornflowerBlue","j","reject",0,941
"930","id0038",1,18,0,0,"human","training_others",9,1,"CornflowerBlue","j","reject",0,2621
"931","id0038",1,19,0,0,"AI","training_others",7,3,"Orange","j","reject",0,2273
"932","id0038",1,20,0,0,"AI","training_others",6,4,"Orange","j","reject",0,2504
"933","id0038",1,21,0,0,"AI","training_others",9,1,"Orange","j","reject",0,6676
"934","id0038",1,22,0,0,"human","training_others",6,4,"CornflowerBlue","j","reject",0,1744
"935","id0038",1,23,0,0,"human","training_others",4,6,"CornflowerBlue","f","accept",6,948
"936","id0038",1,24,0,0,"AI","training_others",8,2,"Orange","j","reject",0,2444
"937","id0039",0,1,1,0,"practice","Practice",5,5,"black","f","accept",5,961
"938","id0039",0,2,1,0,"practice","Practice",9,1,"black","j","reject",0,2055
"939","id0039",1,1,0,0,"AI","control",8,2,"CornflowerBlue","j","reject",0,270
"940","id0039",1,2,0,0,"AI","control",7,3,"CornflowerBlue","j","reject",0,231
"941","id0039",1,3,0,0,"human","control",4,6,"Orange","f","accept",6,415
"942","id0039",1,4,0,0,"human","control",9,1,"Orange","j","reject",0,952
"943","id0039",1,5,0,1,"human","control",6,4,"Orange","f","accept",4,45
"944","id0039",1,6,0,0,"AI","control",4,6,"CornflowerBlue","f","accept",6,744
"945","id0039",1,7,0,0,"human","control",7,3,"Orange","j","reject",0,815
"946","id0039",1,8,0,0,"AI","control",9,1,"CornflowerBlue","j","reject",0,400
"947","id0039",1,9,0,0,"AI","control",5,5,"CornflowerBlue","f","accept",5,358
"948","id0039",1,10,0,0,"human","control",4,6,"Orange","f","accept",6,390
"949","id0039",1,11,0,0,"AI","control",6,4,"CornflowerBlue","f","accept",4,442
"950","id0039",1,12,0,0,"human","control",6,4,"Orange","f","accept",4,775
"951","id0039",1,13,0,0,"AI","control",7,3,"CornflowerBlue","j","reject",0,380
"952","id0039",1,14,0,0,"AI","control",8,2,"CornflowerBlue","j","reject",0,335
"953","id0039",1,15,0,0,"human","control",8,2,"Orange","j","reject",0,342
"954","id0039",1,16,0,0,"human","control",5,5,"Orange","f","accept",5,435
"955","id0039",1,17,0,0,"human","control",7,3,"Orange","j","reject",0,492
"956","id0039",1,18,0,0,"AI","control",6,4,"CornflowerBlue","f","accept",4,1335
"957","id0039",1,19,0,0,"AI","control",9,1,"CornflowerBlue","j","reject",0,478
"958","id0039",1,20,0,0,"human","control",5,5,"Orange","f","accept",5,348
"959","id0039",1,21,0,0,"human","control",9,1,"Orange","j","reject",0,398
"960","id0039",1,22,0,0,"AI","control",4,6,"CornflowerBlue","f","accept",6,340
"961","id0039",1,23,0,0,"AI","control",5,5,"CornflowerBlue","f","accept",5,380
"962","id0039",1,24,0,0,"human","control",8,2,"Orange","j","reject",0,508
"963","id0040",0,1,1,0,"practice","Practice",5,5,"black","f","accept",5,1286
"964","id0040",0,2,1,0,"practice","Practice",4,6,"black","f","accept",6,3
"965","id0040",1,1,0,0,"human","control",4,6,"CornflowerBlue","f","accept",6,668
"966","id0040",1,2,0,1,"AI","control",6,4,"Orange","f","accept",4,383
"967","id0040",1,3,0,0,"human","control",8,2,"CornflowerBlue","f","accept",2,1324
"968","id0040",1,4,0,0,"human","control",7,3,"CornflowerBlue","j","reject",0,1936
"969","id0040",1,5,0,0,"human","control",4,6,"CornflowerBlue","f","accept",6,380
"970","id0040",1,6,0,0,"AI","control",9,1,"Orange","j","reject",0,36
"971","id0040",1,7,0,0,"AI","control",8,2,"Orange","j","reject",0,138
"972","id0040",1,8,0,0,"human","control",9,1,"CornflowerBlue","j","reject",0,343
"973","id0040",1,9,0,0,"AI","control",7,3,"Orange","f","accept",3,9
"974","id0040",1,10,0,0,"AI","control",6,4,"Orange","f","accept",4,361
"975","id0040",1,11,0,0,"AI","control",4,6,"Orange","f","accept",6,237
"976","id0040",1,12,0,0,"AI","control",9,1,"Orange","j","reject",0,474
"977","id0040",1,13,0,0,"AI","control",7,3,"Orange","f","accept",3,35
"978","id0040",1,14,0,0,"human","control",5,5,"CornflowerBlue","f","accept",5,312
"979","id0040",1,15,0,0,"human","control",9,1,"CornflowerBlue","j","reject",0,266
"980","id0040",1,16,0,0,"human","control",5,5,"CornflowerBlue","f","accept",5,366
"981","id0040",1,17,0,0,"AI","control",8,2,"Orange","j","reject",0,429
"982","id0040",1,18,0,0,"AI","control",4,6,"Orange","f","accept",6,279
"983","id0040",1,19,0,0,"human","control",6,4,"CornflowerBlue","f","accept",4,440
"984","id0040",1,20,0,0,"human","control",6,4,"CornflowerBlue","f","accept",4,341
"985","id0040",1,21,0,0,"human","control",7,3,"CornflowerBlue","f","accept",3,306
"986","id0040",1,22,0,0,"human","control",8,2,"CornflowerBlue","j","reject",0,309
"987","id0040",1,23,0,0,"AI","control",5,5,"Orange","f","accept",5,293
"988","id0040",1,24,0,0,"AI","control",5,5,"Orange","f","accept",5,261
"989","id0041",0,1,1,0,"practice","Practice",5,5,"black","f","accept",5,1500
"990","id0041",0,2,1,0,"practice","Practice",9,1,"black","j","reject",0,416
"991","id0041",1,1,0,0,"AI","control",5,5,"CornflowerBlue","f","accept",5,4
"992","id0041",1,2,0,0,"AI","control",7,3,"CornflowerBlue","j","reject",0,1291
"993","id0041",1,3,0,0,"AI","control",4,6,"CornflowerBlue","f","accept",6,440
"994","id0041",1,4,0,0,"human","control",5,5,"Orange","f","accept",5,346
"995","id0041",1,5,0,0,"human","control",9,1,"Orange","j","reject",0,342
"996","id0041",1,6,0,0,"AI","control",8,2,"CornflowerBlue","j","reject",0,657
"997","id0041",1,7,0,0,"AI","control",6,4,"CornflowerBlue","j","reject",0,310
"998","id0041",1,8,0,0,"AI","control",6,4,"CornflowerBlue","j","reject",0,11217
"999","id0041",1,9,0,1,"AI","control",4,6,"CornflowerBlue","f","accept",6,41
"1000","id0041",1,10,0,0,"human","control",5,5,"Orange","f","accept",5,4210
"1001","id0041",1,11,0,0,"human","control",4,6,"Orange","f","accept",6,3167
"1002","id0041",1,12,0,0,"human","control",9,1,"Orange","j","reject",0,53
"1003","id0041",1,13,0,0,"AI","control",5,5,"CornflowerBlue","f","accept",5,366
"1004","id0041",1,14,0,0,"human","control",8,2,"Orange","j","reject",0,1226
"1005","id0041",1,15,0,0,"AI","control",9,1,"CornflowerBlue","j","reject",0,332
"1006","id0041",1,16,0,0,"AI","control",7,3,"CornflowerBlue","j","reject",0,288
"1007","id0041",1,17,0,0,"human","control",4,6,"Orange","f","accept",6,56
"1008","id0041",1,18,0,0,"human","control",7,3,"Orange","j","reject",0,334
"1009","id0041",1,19,0,0,"human","control",6,4,"Orange","j","reject",0,295
"1010","id0041",1,20,0,0,"human","control",8,2,"Orange","j","reject",0,57
"1011","id0041",1,21,0,0,"AI","control",9,1,"CornflowerBlue","j","reject",0,22
"1012","id0041",1,22,0,0,"human","control",6,4,"Orange","j","reject",0,70
"1013","id0041",1,23,0,0,"AI","control",8,2,"CornflowerBlue","j","reject",0,42
"1014","id0041",1,24,0,0,"human","control",7,3,"Orange","j","reject",0,420
"1015","id0042",0,1,1,0,"practice","Practice",6,4,"black","f","accept",4,1399
"1016","id0042",0,2,1,0,"practice","Practice",6,4,"black","f","accept",4,421
"1017","id0042",1,1,0,0,"AI","control",6,4,"CornflowerBlue","f","accept",4,760
"1018","id0042",1,2,0,0,"AI","control",8,2,"CornflowerBlue","j","reject",0,691
"1019","id0042",1,3,0,0,"human","control",8,2,"Orange","j","reject",0,524
"1020","id0042",1,4,0,0,"AI","control",6,4,"CornflowerBlue","f","accept",4,320
"1021","id0042",1,5,0,0,"AI","control",7,3,"CornflowerBlue","j","reject",0,615
"1022","id0042",1,6,0,0,"human","control",6,4,"Orange","f","accept",4,321
"1023","id0042",1,7,0,1,"AI","control",7,3,"CornflowerBlue","j","reject",0,501
"1024","id0042",1,8,0,0,"AI","control",9,1,"CornflowerBlue","j","reject",0,341
"1025","id0042",1,9,0,0,"AI","control",8,2,"CornflowerBlue","j","reject",0,388
"1026","id0042",1,10,0,0,"AI","control",4,6,"CornflowerBlue","f","accept",6,478
"1027","id0042",1,11,0,0,"human","control",9,1,"Orange","j","reject",0,365
"1028","id0042",1,12,0,0,"human","control",9,1,"Orange","j","reject",0,389
"1029","id0042",1,13,0,0,"human","control",7,3,"Orange","j","reject",0,362
"1030","id0042",1,14,0,0,"AI","control",5,5,"CornflowerBlue","f","accept",5,347
"1031","id0042",1,15,0,0,"human","control",8,2,"Orange","j","reject",0,413
"1032","id0042",1,16,0,0,"human","control",6,4,"Orange","f","accept",4,340
"1033","id0042",1,17,0,0,"AI","control",4,6,"CornflowerBlue","f","accept",6,348
"1034","id0042",1,18,0,0,"human","control",5,5,"Orange","j","reject",0,366
"1035","id0042",1,19,0,0,"AI","control",5,5,"CornflowerBlue","f","accept",5,572
"1036","id0042",1,20,0,0,"AI","control",9,1,"CornflowerBlue","j","reject",0,431
"1037","id0042",1,21,0,0,"human","control",7,3,"Orange","j","reject",0,428
"1038","id0042",1,22,0,0,"human","control",4,6,"Orange","f","accept",6,325
"1039","id0042",1,23,0,0,"human","control",5,5,"Orange","f","accept",5,461
"1040","id0042",1,24,0,0,"human","control",4,6,"Orange","f","accept",6,325
"1041","id0043",0,1,1,0,"practice","Practice",9,1,"black","j","reject",0,1720
"1042","id0043",0,2,1,0,"practice","Practice",10,0,"black","j","reject",0,533
"1043","id0043",1,1,0,0,"AI","control",4,6,"CornflowerBlue","f","accept",6,164
"1044","id0043",1,2,0,0,"human","control",8,2,"Orange","j","reject",0,498
"1045","id0043",1,3,0,0,"human","control",8,2,"Orange","j","reject",0,463
"1046","id0043",1,4,0,0,"human","control",5,5,"Orange","f","accept",5,442
"1047","id0043",1,5,0,0,"human","control",6,4,"Orange","f","accept",4,393
"1048","id0043",1,6,0,0,"human","control",7,3,"Orange","j","reject",0,380
"1049","id0043",1,7,0,0,"AI","control",6,4,"CornflowerBlue","f","accept",4,626
"1050","id0043",1,8,0,0,"AI","control",9,1,"CornflowerBlue","j","reject",0,419
"1051","id0043",1,9,0,0,"AI","control",8,2,"CornflowerBlue","j","reject",0,374
"1052","id0043",1,10,0,0,"AI","control",7,3,"CornflowerBlue","j","reject",0,395
"1053","id0043",1,11,0,0,"human","control",6,4,"Orange","f","accept",4,376
"1054","id0043",1,12,0,1,"AI","control",9,1,"CornflowerBlue","j","reject",0,504
"1055","id0043",1,13,0,0,"AI","control",5,5,"CornflowerBlue","f","accept",5,429
"1056","id0043",1,14,0,0,"AI","control",4,6,"CornflowerBlue","f","accept",6,389
"1057","id0043",1,15,0,0,"human","control",5,5,"Orange","f","accept",5,494
"1058","id0043",1,16,0,0,"AI","control",8,2,"CornflowerBlue","j","reject",0,480
"1059","id0043",1,17,0,0,"human","control",4,6,"Orange","f","accept",6,474
"1060","id0043",1,18,0,0,"AI","control",6,4,"CornflowerBlue","f","accept",4,354
"1061","id0043",1,19,0,0,"human","control",9,1,"Orange","j","reject",0,372
"1062","id0043",1,20,0,0,"human","control",9,1,"Orange","j","reject",0,398
"1063","id0043",1,21,0,0,"AI","control",7,3,"CornflowerBlue","j","reject",0,389
"1064","id0043",1,22,0,0,"human","control",4,6,"Orange","f","accept",6,399
"1065","id0043",1,23,0,0,"human","control",7,3,"Orange","j","reject",0,342
"1066","id0043",1,24,0,0,"AI","control",5,5,"CornflowerBlue","f","accept",5,371
"1067","id0044",0,1,1,0,"practice","Practice",10,0,"black","j","reject",0,5363
"1068","id0044",0,2,1,0,"practice","Practice",4,6,"black","f","accept",6,3968
"1069","id0044",1,1,0,0,"human","control",5,5,"Orange","f","accept",5,998
"1070","id0044",1,2,0,0,"AI","control",9,1,"CornflowerBlue","j","reject",0,39
"1071","id0044",1,3,0,0,"human","control",9,1,"Orange","j","reject",0,1084
"1072","id0044",1,4,0,0,"AI","control",4,6,"CornflowerBlue","f","accept",6,6
"1073","id0044",1,5,0,0,"human","control",6,4,"Orange","f","accept",4,736
"1074","id0044",1,6,0,0,"human","control",7,3,"Orange","j","reject",0,853
"1075","id0044",1,7,0,0,"AI","control",7,3,"CornflowerBlue","f","accept",3,376
"1076","id0044",1,8,0,0,"human","control",4,6,"Orange","f","accept",6,1315
"1077","id0044",1,9,0,1,"AI","control",5,5,"CornflowerBlue","f","accept",5,830
"1078","id0044",1,10,0,0,"human","control",5,5,"Orange","f","accept",5,68
"1079","id0044",1,11,0,0,"AI","control",9,1,"CornflowerBlue","j","reject",0,849
"1080","id0044",1,12,0,0,"AI","control",7,3,"CornflowerBlue","j","reject",0,1164
"1081","id0044",1,13,0,0,"AI","control",6,4,"CornflowerBlue","f","accept",4,931
"1082","id0044",1,14,0,0,"AI","control",6,4,"CornflowerBlue","f","accept",4,1063
"1083","id0044",1,15,0,0,"AI","control",4,6,"CornflowerBlue","f","accept",6,995
"1084","id0044",1,16,0,0,"AI","control",8,2,"CornflowerBlue","j","reject",0,247
"1085","id0044",1,17,0,0,"AI","control",8,2,"CornflowerBlue","j","reject",0,87
"1086","id0044",1,18,0,0,"human","control",4,6,"Orange","f","accept",6,385
"1087","id0044",1,19,0,0,"human","control",8,2,"Orange","j","reject",0,2187
"1088","id0044",1,20,0,0,"human","control",6,4,"Orange","f","accept",4,204
"1089","id0044",1,21,0,0,"human","control",9,1,"Orange","j","reject",0,35
"1090","id0044",1,22,0,0,"human","control",8,2,"Orange","j","reject",0,580
"1091","id0044",1,23,0,0,"human","control",7,3,"Orange","j","reject",0,82
"1092","id0044",1,24,0,0,"AI","control",5,5,"CornflowerBlue","f","accept",5,175
"1093","id0045",0,1,1,0,"practice","Practice",10,0,"black","j","reject",0,1769
"1094","id0045",0,2,1,0,"practice","Practice",9,1,"black","j","reject",0,1720
"1095","id0045",1,1,0,0,"human","control",5,5,"Orange","f","accept",5,171
"1096","id0045",1,2,0,0,"human","control",7,3,"Orange","j","reject",0,914
"1097","id0045",1,3,0,0,"AI","control",7,3,"CornflowerBlue","j","reject",0,772
"1098","id0045",1,4,0,0,"human","control",4,6,"Orange","f","accept",6,463
"1099","id0045",1,5,0,0,"human","control",9,1,"Orange","j","reject",0,1454
"1100","id0045",1,6,0,0,"AI","control",5,5,"CornflowerBlue","f","accept",5,476
"1101","id0045",1,7,0,0,"AI","control",8,2,"CornflowerBlue","j","reject",0,1679
"1102","id0045",1,8,0,0,"human","control",9,1,"Orange","j","reject",0,139
"1103","id0045",1,9,0,0,"AI","control",6,4,"CornflowerBlue","f","accept",4,433
"1104","id0045",1,10,0,0,"human","control",5,5,"Orange","f","accept",5,535
"1105","id0045",1,11,0,1,"human","control",7,3,"Orange","j","reject",0,1114
"1106","id0045",1,12,0,0,"AI","control",6,4,"CornflowerBlue","f","accept",4,658
"1107","id0045",1,13,0,0,"AI","control",9,1,"CornflowerBlue","j","reject",0,1028
"1108","id0045",1,14,0,0,"human","control",8,2,"Orange","j","reject",0,462
"1109","id0045",1,15,0,0,"AI","control",4,6,"CornflowerBlue","f","accept",6,455
"1110","id0045",1,16,0,0,"human","control",6,4,"Orange","f","accept",4,440
"1111","id0045",1,17,0,0,"AI","control",9,1,"CornflowerBlue","j","reject",0,449
"1112","id0045",1,18,0,0,"AI","control",5,5,"CornflowerBlue","f","accept",5,528
"1113","id0045",1,19,0,0,"human","control",8,2,"Orange","f","accept",2,523
"1114","id0045",1,20,0,0,"AI","control",7,3,"CornflowerBlue","f","accept",3,586
"1115","id0045",1,21,0,0,"human","control",4,6,"Orange","f","accept",6,561
"1116","id0045",1,22,0,0,"AI","control",8,2,"CornflowerBlue","j","reject",0,913
"1117","id0045",1,23,0,0,"AI","control",4,6,"CornflowerBlue","f","accept",6,426
"1118","id0045",1,24,0,0,"human","control",6,4,"Orange","f","accept",4,2106
"1119","id0046",0,1,1,0,"practice","Practice",7,3,"black","f","accept",3,3394
"1120","id0046",0,2,1,0,"practice","Practice",3,7,"black","f","accept",7,1682
"1121","id0046",1,1,0,0,"AI","training_others",5,5,"Orange","f","accept",5,1034
"1122","id0046",1,2,0,0,"human","training_others",7,3,"CornflowerBlue","f","accept",3,482
"1123","id0046",1,3,0,0,"AI","training_others",7,3,"Orange","f","accept",3,377
"1124","id0046",1,4,0,0,"human","training_others",5,5,"CornflowerBlue","f","accept",5,433
"1125","id0046",1,5,0,0,"human","training_others",5,5,"CornflowerBlue","f","accept",5,435
"1126","id0046",1,6,0,0,"AI","training_others",9,1,"Orange","f","accept",1,589
"1127","id0046",1,7,0,0,"human","training_others",8,2,"CornflowerBlue","f","accept",2,479
"1128","id0046",1,8,0,0,"AI","training_others",6,4,"Orange","f","accept",4,876
"1129","id0046",1,9,0,0,"human","training_others",6,4,"CornflowerBlue","f","accept",4,1075
"1130","id0046",1,10,0,0,"human","training_others",9,1,"CornflowerBlue","f","accept",1,975
"1131","id0046",1,11,0,0,"human","training_others",4,6,"CornflowerBlue","f","accept",6,598
"1132","id0046",1,12,0,0,"human","training_others",7,3,"CornflowerBlue","f","accept",3,666
"1133","id0046",1,13,0,0,"AI","training_others",7,3,"Orange","f","accept",3,715
"1134","id0046",1,14,0,0,"AI","training_others",6,4,"Orange","f","accept",4,723
"1135","id0046",1,15,0,0,"human","training_others",8,2,"CornflowerBlue","f","accept",2,450
"1136","id0046",1,16,0,0,"AI","training_others",9,1,"Orange","f","accept",1,671
"1137","id0046",1,17,0,0,"AI","training_others",8,2,"Orange","f","accept",2,1494
"1138","id0046",1,18,0,0,"AI","training_others",8,2,"Orange","f","accept",2,1260
"1139","id0046",1,19,0,0,"AI","training_others",4,6,"Orange","f","accept",6,543
"1140","id0046",1,20,0,0,"AI","training_others",5,5,"Orange","f","accept",5,934
"1141","id0046",1,21,0,0,"human","training_others",4,6,"CornflowerBlue","f","accept",6,674
"1142","id0046",1,22,0,0,"AI","training_others",4,6,"Orange","f","accept",6,542
"1143","id0046",1,23,0,1,"human","training_others",6,4,"CornflowerBlue","f","accept",4,682
"1144","id0046",1,24,0,0,"human","training_others",9,1,"CornflowerBlue","f","accept",1,746
"1145","id0047",0,1,1,0,"practice","Practice",5,5,"black","f","accept",5,908
"1146","id0047",0,2,1,0,"practice","Practice",5,5,"black","f","accept",5,688
"1147","id0047",1,1,0,0,"AI","training_others",6,4,"CornflowerBlue","f","accept",4,810
"1148","id0047",1,2,0,0,"AI","training_others",6,4,"CornflowerBlue","f","accept",4,437
"1149","id0047",1,3,0,0,"human","training_others",6,4,"Orange","f","accept",4,656
"1150","id0047",1,4,0,0,"human","training_others",4,6,"Orange","f","accept",6,583
"1151","id0047",1,5,0,0,"human","training_others",4,6,"Orange","f","accept",6,487
"1152","id0047",1,6,0,0,"AI","training_others",4,6,"CornflowerBlue","f","accept",6,725
"1153","id0047",1,7,0,0,"human","training_others",7,3,"Orange","j","reject",0,1422
"1154","id0047",1,8,0,0,"human","training_others",9,1,"Orange","j","reject",0,389
"1155","id0047",1,9,0,0,"AI","training_others",4,6,"CornflowerBlue","f","accept",6,989
"1156","id0047",1,10,0,0,"AI","training_others",8,2,"CornflowerBlue","j","reject",0,483
"1157","id0047",1,11,0,0,"human","training_others",5,5,"Orange","f","accept",5,479
"1158","id0047",1,12,0,1,"human","training_others",9,1,"Orange","j","reject",0,369
"1159","id0047",1,13,0,0,"human","training_others",6,4,"Orange","f","accept",4,375
"1160","id0047",1,14,0,0,"human","training_others",5,5,"Orange","f","accept",5,309
"1161","id0047",1,15,0,0,"AI","training_others",9,1,"CornflowerBlue","j","reject",0,299
"1162","id0047",1,16,0,0,"human","training_others",8,2,"Orange","j","reject",0,407
"1163","id0047",1,17,0,0,"AI","training_others",5,5,"CornflowerBlue","f","accept",5,371
"1164","id0047",1,18,0,0,"AI","training_others",7,3,"CornflowerBlue","j","reject",0,4516
"1165","id0047",1,19,0,0,"AI","training_others",9,1,"CornflowerBlue","j","reject",0,396
"1166","id0047",1,20,0,0,"AI","training_others",8,2,"CornflowerBlue","j","reject",0,3042
"1167","id0047",1,21,0,0,"AI","training_others",7,3,"CornflowerBlue","j","reject",0,535
"1168","id0047",1,22,0,0,"AI","training_others",5,5,"CornflowerBlue","f","accept",5,489
"1169","id0047",1,23,0,0,"human","training_others",8,2,"Orange","j","reject",0,423
"1170","id0047",1,24,0,0,"human","training_others",7,3,"Orange","j","reject",0,315
"1171","id0048",0,1,1,0,"practice","Practice",6,4,"black","f","accept",4,1267
"1172","id0048",0,2,1,0,"practice","Practice",9,1,"black","j","reject",0,634
"1173","id0048",1,1,0,0,"AI","training_others",9,1,"CornflowerBlue","j","reject",0,456
"1174","id0048",1,2,0,0,"human","training_others",9,1,"Orange","j","reject",0,356
"1175","id0048",1,3,0,0,"AI","training_others",5,5,"CornflowerBlue","f","accept",5,237
"1176","id0048",1,4,0,0,"human","training_others",7,3,"Orange","f","accept",3,609
"1177","id0048",1,5,0,0,"AI","training_others",6,4,"CornflowerBlue","f","accept",4,679
"1178","id0048",1,6,0,0,"human","training_others",5,5,"Orange","f","accept",5,324
"1179","id0048",1,7,0,0,"AI","training_others",4,6,"CornflowerBlue","f","accept",6,322
"1180","id0048",1,8,0,0,"human","training_others",8,2,"Orange","j","reject",0,562
"1181","id0048",1,9,0,0,"AI","training_others",8,2,"CornflowerBlue","j","reject",0,288
"1182","id0048",1,10,0,0,"human","training_others",9,1,"Orange","j","reject",0,338
"1183","id0048",1,11,0,0,"AI","training_others",4,6,"CornflowerBlue","f","accept",6,276
"1184","id0048",1,12,0,0,"human","training_others",6,4,"Orange","f","accept",4,286
"1185","id0048",1,13,0,0,"AI","training_others",5,5,"CornflowerBlue","f","accept",5,305
"1186","id0048",1,14,0,0,"human","training_others",7,3,"Orange","f","accept",3,278
"1187","id0048",1,15,0,1,"human","training_others",4,6,"Orange","f","accept",6,372
"1188","id0048",1,16,0,0,"human","training_others",5,5,"Orange","f","accept",5,363
"1189","id0048",1,17,0,0,"human","training_others",6,4,"Orange","f","accept",4,311
"1190","id0048",1,18,0,0,"AI","training_others",8,2,"CornflowerBlue","j","reject",0,364
"1191","id0048",1,19,0,0,"human","training_others",8,2,"Orange","j","reject",0,274
"1192","id0048",1,20,0,0,"human","training_others",4,6,"Orange","f","accept",6,278
"1193","id0048",1,21,0,0,"AI","training_others",7,3,"CornflowerBlue","f","accept",3,964
"1194","id0048",1,22,0,0,"AI","training_others",9,1,"CornflowerBlue","j","reject",0,314
"1195","id0048",1,23,0,0,"AI","training_others",6,4,"CornflowerBlue","f","accept",4,251
"1196","id0048",1,24,0,0,"AI","training_others",7,3,"CornflowerBlue","f","accept",3,261
"1197","id0049",0,1,1,0,"practice","Practice",6,4,"black","f","accept",4,3325
"1198","id0049",0,2,1,0,"practice","Practice",4,6,"black","f","accept",6,1735
"1199","id0049",1,1,0,0,"AI","control",4,6,"CornflowerBlue","f","accept",6,990
"1200","id0049",1,2,0,0,"human","control",6,4,"Orange","f","accept",4,758
"1201","id0049",1,3,0,0,"AI","control",6,4,"CornflowerBlue","f","accept",4,116
"1202","id0049",1,4,0,0,"AI","control",9,1,"CornflowerBlue","f","accept",1,554
"1203","id0049",1,5,0,0,"AI","control",8,2,"CornflowerBlue","f","accept",2,689
"1204","id0049",1,6,0,0,"human","control",5,5,"Orange","f","accept",5,525
"1205","id0049",1,7,0,1,"human","control",9,1,"Orange","f","accept",1,484
"1206","id0049",1,8,0,0,"AI","control",7,3,"CornflowerBlue","f","accept",3,581
"1207","id0049",1,9,0,0,"AI","control",8,2,"CornflowerBlue","f","accept",2,413
"1208","id0049",1,10,0,0,"human","control",7,3,"Orange","f","accept",3,450
"1209","id0049",1,11,0,0,"human","control",7,3,"Orange","f","accept",3,499
"1210","id0049",1,12,0,0,"human","control",9,1,"Orange","f","accept",1,447
"1211","id0049",1,13,0,0,"human","control",6,4,"Orange","f","accept",4,335
"1212","id0049",1,14,0,0,"AI","control",6,4,"CornflowerBlue","f","accept",4,57
"1213","id0049",1,15,0,0,"AI","control",7,3,"CornflowerBlue","f","accept",3,568
"1214","id0049",1,16,0,0,"human","control",4,6,"Orange","f","accept",6,577
"1215","id0049",1,17,0,0,"human","control",8,2,"Orange","f","accept",2,528
"1216","id0049",1,18,0,0,"human","control",4,6,"Orange","f","accept",6,467
"1217","id0049",1,19,0,0,"AI","control",4,6,"CornflowerBlue","f","accept",6,666
"1218","id0049",1,20,0,0,"AI","control",5,5,"CornflowerBlue","f","accept",5,913
"1219","id0049",1,21,0,0,"human","control",8,2,"Orange","f","accept",2,479
"1220","id0049",1,22,0,0,"human","control",5,5,"Orange","f","accept",5,512
"1221","id0049",1,23,0,0,"AI","control",5,5,"CornflowerBlue","f","accept",5,449
"1222","id0049",1,24,0,0,"AI","control",9,1,"CornflowerBlue","f","accept",1,431
"1223","id0050",0,1,1,0,"practice","Practice",10,0,"black","j","reject",0,2818
"1224","id0050",0,2,1,0,"practice","Practice",1,9,"black","f","accept",9,6
"1225","id0050",1,1,0,0,"AI","control",9,1,"CornflowerBlue","j","reject",0,532
"1226","id0050",1,2,0,0,"human","control",4,6,"Orange","f","accept",6,388
"1227","id0050",1,3,0,0,"human","control",9,1,"Orange","j","reject",0,395
"1228","id0050",1,4,0,0,"human","control",4,6,"Orange","f","accept",6,524
"1229","id0050",1,5,0,0,"AI","control",5,5,"CornflowerBlue","f","accept",5,290
"1230","id0050",1,6,0,0,"AI","control",9,1,"CornflowerBlue","j","reject",0,950
"1231","id0050",1,7,0,0,"AI","control",7,3,"CornflowerBlue","j","reject",0,367
"1232","id0050",1,8,0,0,"human","control",8,2,"Orange","j","reject",0,211
"1233","id0050",1,9,0,0,"human","control",5,5,"Orange","f","accept",5,366
"1234","id0050",1,10,0,0,"AI","control",4,6,"CornflowerBlue","j","reject",0,1220
"1235","id0050",1,11,0,1,"AI","control",7,3,"CornflowerBlue","j","reject",0,640
"1236","id0050",1,12,0,0,"AI","control",4,6,"CornflowerBlue","j","reject",0,3026
"1237","id0050",1,13,0,0,"AI","control",5,5,"CornflowerBlue","f","accept",5,538
"1238","id0050",1,14,0,0,"human","control",7,3,"Orange","j","reject",0,366
"1239","id0050",1,15,0,0,"human","control",7,3,"Orange","j","reject",0,779
"1240","id0050",1,16,0,0,"human","control",5,5,"Orange","f","accept",5,485
"1241","id0050",1,17,0,0,"AI","control",8,2,"CornflowerBlue","j","reject",0,455
"1242","id0050",1,18,0,0,"AI","control",6,4,"CornflowerBlue","j","reject",0,407
"1243","id0050",1,19,0,0,"human","control",8,2,"Orange","j","reject",0,512
