"","id","block","trial_number","practice_trial","random_trial","opponent","training_condition","proposer_offer","receiver_offer","color","response_key","response","outcome","reaction_time"
"1","id0001",0,1,1,0,"practice","Practice",5,5,"black","f","accept",5,1065
"2","id0001",0,2,1,0,"practice","Practice",1,9,"black","f","accept",9,330
"3","id0001",1,1,0,0,"human","training_self",6,4,"Orange","f","accept",4,367
"4","id0001",1,2,0,0,"human","training_self",8,2,"Orange","j","reject",0,759
"5","id0001",1,3,0,0,"human","training_self",5,5,"Orange","f","accept",5,891
"6","id0001",1,4,0,0,"human","training_self",7,3,"Orange","f","accept",3,1019
"7","id0001",1,5,0,0,"AI","training_self",7,3,"CornflowerBlue","j","reject",0,235
"8","id0001",1,6,0,0,"human","training_self",5,5,"Orange","f","accept",5,356
"9","id0001",1,7,0,0,"AI","training_self",9,1,"CornflowerBlue","j","reject",0,816
"10","id0001",1,8,0,0,"AI","training_self",4,6,"CornflowerBlue","f","accept",6,381
"11","id0001",1,9,0,1,"human","training_self",8,2,"Orange","f","accept",2,1229
"12","id0001",1,10,0,0,"AI","training_self",8,2,"CornflowerBlue","f","accept",2,302
"13","id0001",1,11,0,0,"human","training_self",9,1,"Orange","j","reject",0,400
"14","id0001",1,12,0,0,"human","training_self",9,1,"Orange","f","accept",1,734
"15","id0001",1,13,0,0,"AI","training_self",5,5,"CornflowerBlue","f","accept",5,632
"16","id0001",1,14,0,0,"human","training_self",7,3,"Orange","f","accept",3,427
"17","id0001",1,15,0,0,"human","training_self",4,6,"Orange","f","accept",6,594
"18","id0001",1,16,0,0,"AI","training_self",6,4,"CornflowerBlue","f","accept",4,370
"19","id0001",1,17,0,0,"AI","training_self",5,5,"CornflowerBlue","f","accept",5,1091
"20","id0001",1,18,0,0,"AI","training_self",8,2,"CornflowerBlue","j","reject",0,1371
"21","id0001",1,19,0,0,"AI","training_self",9,1,"CornflowerBlue","j","reject",0,452
"22","id0001",1,20,0,0,"AI","training_self",7,3,"CornflowerBlue","f","accept",3,763
"23","id0001",1,21,0,0,"human","training_self",4,6,"Orange","f","accept",6,560
"24","id0001",1,22,0,0,"human","training_self",6,4,"Orange","f","accept",4,933
"25","id0001",1,23,0,0,"AI","training_self",6,4,"CornflowerBlue","f","accept",4,831
"26","id0001",1,24,0,0,"AI","training_self",4,6,"CornflowerBlue","f","accept",6,333
"27","id0002",0,1,1,0,"practice","Practice",4,6,"black","f","accept",6,7098
"28","id0002",0,2,1,0,"practice","Practice",2,8,"black","f","accept",8,1254
"29","id0002",1,1,0,0,"AI","training_others",4,6,"CornflowerBlue","f","accept",6,2178
"30","id0002",1,2,0,0,"AI","training_others",6,4,"CornflowerBlue","f","accept",4,1371
"31","id0002",1,3,0,0,"human","training_others",6,4,"Orange","f","accept",4,1662
"32","id0002",1,4,0,0,"AI","training_others",8,2,"CornflowerBlue","f","accept",2,2117
"33","id0002",1,5,0,0,"human","training_others",8,2,"Orange","j","reject",0,1316
"34","id0002",1,6,0,0,"AI","training_others",9,1,"CornflowerBlue","f","accept",1,171
"35","id0002",1,7,0,0,"human","training_others",4,6,"Orange","f","accept",6,380
"36","id0002",1,8,0,0,"AI","training_others",6,4,"CornflowerBlue","f","accept",4,595
"37","id0002",1,9,0,0,"AI","training_others",4,6,"CornflowerBlue","f","accept",6,1159
"38","id0002",1,10,0,0,"AI","training_others",9,1,"CornflowerBlue","f","accept",1,353
"39","id0002",1,11,0,0,"human","training_others",9,1,"Orange","j","reject",0,857
"40","id0002",1,12,0,0,"human","training_others",4,6,"Orange","f","accept",6,1490
"41","id0002",1,13,0,0,"human","training_others",5,5,"Orange","f","accept",5,467
"42","id0002",1,14,0,0,"human","training_others",8,2,"Orange","f","accept",2,736
"43","id0002",1,15,0,0,"human","training_others",5,5,"Orange","f","accept",5,1464
"44","id0002",1,16,0,0,"AI","training_others",7,3,"CornflowerBlue","f","accept",3,2619
"45","id0002",1,17,0,0,"AI","training_others",5,5,"CornflowerBlue","f","accept",5,443
"46","id0002",1,18,0,0,"AI","training_others",7,3,"CornflowerBlue","f","accept",3,534
"47","id0002",1,19,0,0,"AI","training_others",5,5,"CornflowerBlue","f","accept",5,237
"48","id0002",1,20,0,0,"human","training_others",7,3,"Orange","f","accept",3,5508
"49","id0002",1,21,0,1,"human","training_others",7,3,"Orange","f","accept",3,850
"50","id0002",1,22,0,0,"AI","training_others",8,2,"CornflowerBlue","f","accept",2,1994
"51","id0002",1,23,0,0,"human","training_others",6,4,"Orange","f","accept",4,337
"52","id0002",1,24,0,0,"human","training_others",9,1,"Orange","j","reject",0,1227
"53","id0003",0,1,1,0,"practice","Practice",9,1,"black","j","reject",0,963
"54","id0003",0,2,1,0,"practice","Practice",1,9,"black","f","accept",9,380
"55","id0003",1,1,0,0,"AI","control",8,2,"Orange","j","reject",0,455
"56","id0003",1,2,0,0,"AI","control",9,1,"Orange","j","reject",0,282
"57","id0003",1,3,0,0,"AI","control",9,1,"Orange","j","reject",0,274
"58","id0003",1,4,0,0,"human","control",6,4,"CornflowerBlue","j","reject",0,81
"59","id0003",1,5,0,0,"human","control",8,2,"CornflowerBlue","j","reject",0,265
"60","id0003",1,6,0,0,"human","control",7,3,"CornflowerBlue","j","reject",0,313
"61","id0003",1,7,0,1,"human","control",4,6,"CornflowerBlue","f","accept",6,243
"62","id0003",1,8,0,0,"AI","control",6,4,"Orange","j","reject",0,331
"63","id0003",1,9,0,0,"human","control",5,5,"CornflowerBlue","f","accept",5,753
"64","id0003",1,10,0,0,"AI","control",7,3,"Orange","j","reject",0,250
"65","id0003",1,11,0,0,"human","control",9,1,"CornflowerBlue","j","reject",0,332
"66","id0003",1,12,0,0,"AI","control",4,6,"Orange","f","accept",6,1032
"67","id0003",1,13,0,0,"AI","control",7,3,"Orange","j","reject",0,3892
"68","id0003",1,14,0,0,"AI","control",4,6,"Orange","f","accept",6,357
"69","id0003",1,15,0,0,"human","control",9,1,"CornflowerBlue","j","reject",0,8282
"70","id0003",1,16,0,0,"AI","control",6,4,"Orange","j","reject",0,2674
"71","id0003",1,17,0,0,"human","control",8,2,"CornflowerBlue","j","reject",0,214023
"72","id0003",1,18,0,0,"AI","control",8,2,"Orange","j","reject",0,375
"73","id0003",1,19,0,0,"human","control",6,4,"CornflowerBlue","j","reject",0,2555
"74","id0003",1,20,0,0,"AI","control",5,5,"Orange","f","accept",5,357
"75","id0003",1,21,0,0,"human","control",4,6,"CornflowerBlue","j","reject",0,276
"76","id0003",1,22,0,0,"human","control",5,5,"CornflowerBlue","f","accept",5,607
"77","id0003",1,23,0,0,"human","control",7,3,"CornflowerBlue","j","reject",0,5171
"78","id0003",1,24,0,0,"AI","control",5,5,"Orange","f","accept",5,9834
"79","id0005",0,1,1,0,"practice","Practice",1,9,"black","f","accept",9,1069
"80","id0005",0,2,1,0,"practice","Practice",10,0,"black","j","reject",0,362
"81","id0005",1,1,0,0,"AI","control",9,1,"CornflowerBlue","j","reject",0,357
"82","id0005",1,2,0,1,"human","control",9,1,"Orange","j","reject",0,390
"83","id0005",1,3,0,0,"human","control",8,2,"Orange","j","reject",0,383
"84","id0005",1,4,0,0,"human","control",6,4,"Orange","j","reject",0,1231
"85","id0005",1,5,0,0,"AI","control",4,6,"CornflowerBlue","f","accept",6,351
"86","id0005",1,6,0,0,"human","control",9,1,"Orange","j","reject",0,401
"87","id0005",1,7,0,0,"human","control",4,6,"Orange","j","reject",0,386
"88","id0005",1,8,0,0,"AI","control",8,2,"CornflowerBlue","j","reject",0,404
"89","id0005",1,9,0,0,"human","control",5,5,"Orange","f","accept",5,439
"90","id0005",1,10,0,0,"AI","control",7,3,"CornflowerBlue","j","reject",0,435
"91","id0005",1,11,0,0,"human","control",8,2,"Orange","j","reject",0,351
"92","id0005",1,12,0,0,"human","control",5,5,"Orange","f","accept",5,370
"93","id0005",1,13,0,0,"human","control",4,6,"Orange","f","accept",6,464
"94","id0005",1,14,0,0,"AI","control",5,5,"CornflowerBlue","f","accept",5,483
"95","id0005",1,15,0,0,"AI","control",9,1,"CornflowerBlue","j","reject",0,381
"96","id0005",1,16,0,0,"AI","control",8,2,"CornflowerBlue","j","reject",0,406
"97","id0005",1,17,0,0,"human","control",7,3,"Orange","j","reject",0,306
"98","id0005",1,18,0,0,"AI","control",5,5,"CornflowerBlue","f","accept",5,433
"99","id0005",1,19,0,0,"AI","control",6,4,"CornflowerBlue","j","reject",0,289
"100","id0005",1,20,0,0,"AI","control",7,3,"CornflowerBlue","j","reject",0,4575
"101","id0005",1,21,0,0,"human","control",7,3,"Orange","j","reject",0,998
"102","id0005",1,22,0,0,"AI","control",6,4,"CornflowerBlue","j","reject",0,573
"103","id0005",1,23,0,0,"AI","control",4,6,"CornflowerBlue","f","accept",6,816
"104","id0005",1,24,0,0,"human","control",6,4,"Orange","j","reject",0,378
"105","id0006",0,1,1,0,"practice","Practice",5,5,"black","f","accept",5,2650
"106","id0006",0,2,1,0,"practice","Practice",4,6,"black","f","accept",6,410
"107","id0006",1,1,0,0,"human","training_self",6,4,"Orange","f","accept",4,625
"108","id0006",1,2,0,0,"AI","training_self",8,2,"CornflowerBlue","f","accept",2,352
"109","id0006",1,3,0,0,"AI","training_self",8,2,"CornflowerBlue","f","accept",2,301
"110","id0006",1,4,0,0,"human","training_self",7,3,"Orange","f","accept",3,623
"111","id0006",1,5,0,0,"human","training_self",4,6,"Orange","f","accept",6,520
"112","id0006",1,6,0,0,"human","training_self",4,6,"Orange","f","accept",6,524
"113","id0006",1,7,0,0,"human","training_self",8,2,"Orange","f","accept",2,456
"114","id0006",1,8,0,0,"AI","training_self",9,1,"CornflowerBlue","f","accept",1,476
"115","id0006",1,9,0,0,"AI","training_self",6,4,"CornflowerBlue","f","accept",4,502
"116","id0006",1,10,0,1,"AI","training_self",5,5,"CornflowerBlue","f","accept",5,2339
"117","id0006",1,11,0,0,"human","training_self",9,1,"Orange","f","accept",1,789
"118","id0006",1,12,0,0,"AI","training_self",7,3,"CornflowerBlue","f","accept",3,561
"119","id0006",1,13,0,0,"human","training_self",5,5,"Orange","f","accept",5,1189
"120","id0006",1,14,0,0,"human","training_self",7,3,"Orange","f","accept",3,475
"121","id0006",1,15,0,0,"AI","training_self",9,1,"CornflowerBlue","f","accept",1,400
"122","id0006",1,16,0,0,"AI","training_self",6,4,"CornflowerBlue","f","accept",4,716
"123","id0006",1,17,0,0,"AI","training_self",7,3,"CornflowerBlue","f","accept",3,721
"124","id0006",1,18,0,0,"human","training_self",8,2,"Orange","f","accept",2,510
"125","id0006",1,19,0,0,"AI","training_self",5,5,"CornflowerBlue","f","accept",5,474
"126","id0006",1,20,0,0,"human","training_self",6,4,"Orange","f","accept",4,466
"127","id0006",1,21,0,0,"human","training_self",5,5,"Orange","f","accept",5,644
"128","id0006",1,22,0,0,"AI","training_self",4,6,"CornflowerBlue","f","accept",6,953
"129","id0006",1,23,0,0,"human","training_self",9,1,"Orange","f","accept",1,1694
"130","id0006",1,24,0,0,"AI","training_self",4,6,"CornflowerBlue","f","accept",6,426
"131","id0007",0,1,1,0,"practice","Practice",7,3,"black","j","reject",0,614
"132","id0007",0,2,1,0,"practice","Practice",10,0,"black","j","reject",0,861
"133","id0007",1,1,0,0,"human","training_self",8,2,"Orange","j","reject",0,596
"134","id0007",1,2,0,0,"human","training_self",6,4,"Orange","f","accept",4,409
"135","id0007",1,3,0,0,"AI","training_self",9,1,"CornflowerBlue","j","reject",0,509
"136","id0007",1,4,0,0,"AI","training_self",8,2,"CornflowerBlue","j","reject",0,435
"137","id0007",1,5,0,0,"AI","training_self",5,5,"CornflowerBlue","f","accept",5,334
"138","id0007",1,6,0,0,"human","training_self",5,5,"Orange","f","accept",5,445
"139","id0007",1,7,0,0,"human","training_self",5,5,"Orange","f","accept",5,604
"140","id0007",1,8,0,0,"AI","training_self",6,4,"CornflowerBlue","f","accept",4,386
"141","id0007",1,9,0,0,"human","training_self",9,1,"Orange","j","reject",0,483
"142","id0007",1,10,0,0,"AI","training_self",9,1,"CornflowerBlue","j","reject",0,527
"143","id0007",1,11,0,0,"AI","training_self",5,5,"CornflowerBlue","f","accept",5,428
"144","id0007",1,12,0,0,"AI","training_self",4,6,"CornflowerBlue","f","accept",6,643
"145","id0007",1,13,0,0,"AI","training_self",4,6,"CornflowerBlue","f","accept",6,547
"146","id0007",1,14,0,0,"AI","training_self",7,3,"CornflowerBlue","j","reject",0,930
"147","id0007",1,15,0,0,"AI","training_self",8,2,"CornflowerBlue","j","reject",0,633
"148","id0007",1,16,0,0,"human","training_self",7,3,"Orange","j","reject",0,440
"149","id0007",1,17,0,0,"human","training_self",8,2,"Orange","j","reject",0,836
"150","id0007",1,18,0,0,"human","training_self",9,1,"Orange","j","reject",0,579
"151","id0007",1,19,0,0,"human","training_self",7,3,"Orange","j","reject",0,736
"152","id0007",1,20,0,0,"human","training_self",4,6,"Orange","f","accept",6,1473
"153","id0007",1,21,0,0,"AI","training_self",6,4,"CornflowerBlue","f","accept",4,675
"154","id0007",1,22,0,0,"human","training_self",4,6,"Orange","f","accept",6,542
"155","id0007",1,23,0,0,"human","training_self",6,4,"Orange","f","accept",4,503
"156","id0007",1,24,0,1,"AI","training_self",7,3,"CornflowerBlue","j","reject",0,630
"157","id0008",0,1,1,0,"practice","Practice",8,2,"black","f","accept",2,8474
"158","id0008",0,2,1,0,"practice","Practice",9,1,"black","f","accept",1,782
"159","id0008",1,1,0,0,"AI","training_others",8,2,"CornflowerBlue","f","accept",2,9302
"160","id0008",1,2,0,0,"human","training_others",6,4,"Orange","j","reject",0,10469
"161","id0008",1,3,0,0,"AI","training_others",9,1,"CornflowerBlue","f","accept",1,5125
"162","id0008",1,4,0,0,"human","training_others",7,3,"Orange","f","accept",3,1717
"163","id0008",1,5,0,0,"human","training_others",7,3,"Orange","f","accept",3,4157
"164","id0008",1,6,0,0,"AI","training_others",9,1,"CornflowerBlue","f","accept",1,674
"165","id0008",1,7,0,0,"human","training_others",8,2,"Orange","f","accept",2,4412
"166","id0008",1,8,0,0,"AI","training_others",6,4,"CornflowerBlue","j","reject",0,1732
"167","id0008",1,9,0,0,"human","training_others",4,6,"Orange","j","reject",0,2959
"168","id0008",1,10,0,0,"human","training_others",9,1,"Orange","f","accept",1,2038
"169","id0008",1,11,0,0,"AI","training_others",4,6,"CornflowerBlue","j","reject",0,406
"170","id0008",1,12,0,1,"human","training_others",5,5,"Orange","j","reject",0,1187
"171","id0008",1,13,0,0,"human","training_others",8,2,"Orange","f","accept",2,73
"172","id0008",1,14,0,0,"AI","training_others",7,3,"CornflowerBlue","f","accept",3,443
"173","id0008",1,15,0,0,"AI","training_others",7,3,"CornflowerBlue","f","accept",3,661
"174","id0008",1,16,0,0,"AI","training_others",5,5,"CornflowerBlue","j","reject",0,1923
"175","id0008",1,17,0,0,"human","training_others",6,4,"Orange","j","reject",0,2965
"176","id0008",1,18,0,0,"human","training_others",9,1,"Orange","f","accept",1,218
"177","id0008",1,19,0,0,"human","training_others",5,5,"Orange","j","reject",0,385
"178","id0008",1,20,0,0,"AI","training_others",8,2,"CornflowerBlue","f","accept",2,1710
"179","id0008",1,21,0,0,"AI","training_others",4,6,"CornflowerBlue","j","reject",0,1524
"180","id0008",1,22,0,0,"human","training_others",4,6,"Orange","j","reject",0,388
"181","id0008",1,23,0,0,"AI","training_others",6,4,"CornflowerBlue","j","reject",0,2641
"182","id0008",1,24,0,0,"AI","training_others",5,5,"CornflowerBlue","j","reject",0,390
"183","id0009",0,1,1,0,"practice","Practice",3,7,"black","f","accept",7,877
"184","id0009",0,2,1,0,"practice","Practice",5,5,"black","f","accept",5,614
"185","id0009",1,1,0,0,"human","training_others",6,4,"CornflowerBlue","f","accept",4,1210
"186","id0009",1,2,0,0,"human","training_others",9,1,"CornflowerBlue","f","accept",1,252
"187","id0009",1,3,0,0,"human","training_others",7,3,"CornflowerBlue","f","accept",3,693
"188","id0009",1,4,0,0,"human","training_others",9,1,"CornflowerBlue","f","accept",1,618
"189","id0009",1,5,0,0,"human","training_others",4,6,"CornflowerBlue","f","accept",6,431
"190","id0009",1,6,0,0,"human","training_others",8,2,"CornflowerBlue","f","accept",2,540
"191","id0009",1,7,0,0,"human","training_others",4,6,"CornflowerBlue","f","accept",6,532
"192","id0009",1,8,0,0,"AI","training_others",7,3,"Orange","f","accept",3,648
"193","id0009",1,9,0,0,"AI","training_others",9,1,"Orange","f","accept",1,519
"194","id0009",1,10,0,0,"AI","training_others",6,4,"Orange","f","accept",4,513
"195","id0009",1,11,0,0,"AI","training_others",8,2,"Orange","f","accept",2,538
"196","id0009",1,12,0,0,"AI","training_others",7,3,"Orange","f","accept",3,752
"197","id0009",1,13,0,0,"AI","training_others",4,6,"Orange","f","accept",6,1
"198","id0009",1,14,0,0,"AI","training_others",8,2,"Orange","f","accept",2,546
"199","id0009",1,15,0,0,"human","training_others",5,5,"CornflowerBlue","f","accept",5,602
"200","id0009",1,16,0,0,"human","training_others",8,2,"CornflowerBlue","f","accept",2,827
"201","id0009",1,17,0,0,"AI","training_others",5,5,"Orange","f","accept",5,455
"202","id0009",1,18,0,0,"human","training_others",7,3,"CornflowerBlue","f","accept",3,528
"203","id0009",1,19,0,0,"AI","training_others",6,4,"Orange","f","accept",4,525
"204","id0009",1,20,0,1,"AI","training_others",5,5,"Orange","f","accept",5,427
"205","id0009",1,21,0,0,"AI","training_others",4,6,"Orange","f","accept",6,2999
"206","id0009",1,22,0,0,"human","training_others",6,4,"CornflowerBlue","f","accept",4,2283
"207","id0009",1,23,0,0,"AI","training_others",9,1,"Orange","f","accept",1,6982
"208","id0009",1,24,0,0,"human","training_others",5,5,"CornflowerBlue","f","accept",5,812
"209","id0010",0,1,1,0,"practice","Practice",6,4,"black","f","accept",4,2139
"210","id0010",0,2,1,0,"practice","Practice",1,9,"black","f","accept",9,698
"211","id0010",1,1,0,0,"AI","training_others",9,1,"Orange","j","reject",0,1816
"212","id0010",1,2,0,0,"human","training_others",7,3,"CornflowerBlue","f","accept",3,407
"213","id0010",1,3,0,0,"human","training_others",9,1,"CornflowerBlue","f","accept",1,16
"214","id0010",1,4,0,0,"AI","training_others",5,5,"Orange","f","accept",5,2937
"215","id0010",1,5,0,0,"AI","training_others",4,6,"Orange","f","accept",6,1127
"216","id0010",1,6,0,0,"human","training_others",9,1,"CornflowerBlue","j","reject",0,4643
"217","id0010",1,7,0,1,"AI","training_others",6,4,"Orange","f","accept",4,1043
"218","id0010",1,8,0,0,"AI","training_others",8,2,"Orange","f","accept",2,782
"219","id0010",1,9,0,0,"human","training_others",6,4,"CornflowerBlue","f","accept",4,838
"220","id0010",1,10,0,0,"AI","training_others",5,5,"Orange","f","accept",5,571
"221","id0010",1,11,0,0,"human","training_others",5,5,"CornflowerBlue","f","accept",5,965
"222","id0010",1,12,0,0,"human","training_others",6,4,"CornflowerBlue","f","accept",4,531
"223","id0010",1,13,0,0,"AI","training_others",7,3,"Orange","f","accept",3,2127
"224","id0010",1,14,0,0,"human","training_others",7,3,"CornflowerBlue","f","accept",3,301
"225","id0010",1,15,0,0,"AI","training_others",7,3,"Orange","f","accept",3,776
"226","id0010",1,16,0,0,"AI","training_others",4,6,"Orange","f","accept",6,612
"227","id0010",1,17,0,0,"AI","training_others",9,1,"Orange","j","reject",0,504
"228","id0010",1,18,0,0,"human","training_others",4,6,"CornflowerBlue","f","accept",6,495
"229","id0010",1,19,0,0,"human","training_others",8,2,"CornflowerBlue","f","accept",2,610
"230","id0010",1,20,0,0,"human","training_others",8,2,"CornflowerBlue","f","accept",2,573
"231","id0010",1,21,0,0,"human","training_others",5,5,"CornflowerBlue","f","accept",5,500
"232","id0010",1,22,0,0,"AI","training_others",8,2,"Orange","j","reject",0,791
"233","id0010",1,23,0,0,"human","training_others",4,6,"CornflowerBlue","f","accept",6,576
"234","id0010",1,24,0,0,"AI","training_others",6,4,"Orange","f","accept",4,502
"235","id0011",0,1,1,0,"practice","Practice",2,8,"black","f","accept",8,1727
"236","id0011",0,2,1,0,"practice","Practice",10,0,"black","j","reject",0,1797
"237","id0011",1,1,0,0,"human","training_self",7,3,"CornflowerBlue","f","accept",3,749
"238","id0011",1,2,0,0,"human","training_self",4,6,"CornflowerBlue","f","accept",6,423
"239","id0011",1,3,0,0,"human","training_self",5,5,"CornflowerBlue","f","accept",5,411
"240","id0011",1,4,0,1,"human","training_self",4,6,"CornflowerBlue","f","accept",6,387
"241","id0011",1,5,0,0,"AI","training_self",8,2,"Orange","j","reject",0,400
"242","id0011",1,6,0,0,"AI","training_self",4,6,"Orange","f","accept",6,382
"243","id0011",1,7,0,0,"human","training_self",7,3,"CornflowerBlue","f","accept",3,325
"244","id0011",1,8,0,0,"AI","training_self",8,2,"Orange","f","accept",2,377
"245","id0011",1,9,0,0,"AI","training_self",7,3,"Orange","f","accept",3,339
"246","id0011",1,10,0,0,"human","training_self",6,4,"CornflowerBlue","f","accept",4,336
"247","id0011",1,11,0,0,"AI","training_self",9,1,"Orange","j","reject",0,61
"248","id0011",1,12,0,0,"AI","training_self",7,3,"Orange","f","accept",3,594
"249","id0011",1,13,0,0,"AI","training_self",9,1,"Orange","j","reject",0,232
"250","id0011",1,14,0,0,"AI","training_self",4,6,"Orange","f","accept",6,407
"251","id0011",1,15,0,0,"human","training_self",8,2,"CornflowerBlue","f","accept",2,39
"252","id0011",1,16,0,0,"AI","training_self",5,5,"Orange","f","accept",5,199
"253","id0011",1,17,0,0,"human","training_self",6,4,"CornflowerBlue","f","accept",4,364
"254","id0011",1,18,0,0,"human","training_self",5,5,"CornflowerBlue","f","accept",5,349
"255","id0011",1,19,0,0,"AI","training_self",5,5,"Orange","f","accept",5,381
"256","id0011",1,20,0,0,"human","training_self",9,1,"CornflowerBlue","j","reject",0,1124
"257","id0011",1,21,0,0,"human","training_self",8,2,"CornflowerBlue","j","reject",0,280
"258","id0011",1,22,0,0,"AI","training_self",6,4,"Orange","f","accept",4,445
"259","id0011",1,23,0,0,"human","training_self",9,1,"CornflowerBlue","j","reject",0,374
"260","id0011",1,24,0,0,"AI","training_self",6,4,"Orange","f","accept",4,360
"261","id0012",0,1,1,0,"practice","Practice",2,8,"black","f","accept",8,1647
"262","id0012",0,2,1,0,"practice","Practice",7,3,"black","f","accept",3,665
"263","id0012",1,1,0,0,"human","training_self",5,5,"Orange","f","accept",5,2238
"264","id0012",1,2,0,0,"AI","training_self",9,1,"CornflowerBlue","j","reject",0,1543
"265","id0012",1,3,0,0,"human","training_self",6,4,"Orange","f","accept",4,942
"266","id0012",1,4,0,0,"AI","training_self",7,3,"CornflowerBlue","j","reject",0,2334
"267","id0012",1,5,0,0,"AI","training_self",7,3,"CornflowerBlue","j","reject",0,255
"268","id0012",1,6,0,0,"AI","training_self",5,5,"CornflowerBlue","f","accept",5,598
"269","id0012",1,7,0,0,"AI","training_self",8,2,"CornflowerBlue","j","reject",0,956
"270","id0012",1,8,0,0,"human","training_self",5,5,"Orange","f","accept",5,960
"271","id0012",1,9,0,0,"human","training_self",6,4,"Orange","f","accept",4,660
"272","id0012",1,10,0,0,"AI","training_self",8,2,"CornflowerBlue","j","reject",0,56
"273","id0012",1,11,0,0,"AI","training_self",5,5,"CornflowerBlue","f","accept",5,497
"274","id0012",1,12,0,0,"human","training_self",7,3,"Orange","j","reject",0,435
"275","id0012",1,13,0,0,"AI","training_self",4,6,"CornflowerBlue","f","accept",6,435
"276","id0012",1,14,0,0,"AI","training_self",9,1,"CornflowerBlue","j","reject",0,374
"277","id0012",1,15,0,0,"human","training_self",4,6,"Orange","f","accept",6,635
"278","id0012",1,16,0,0,"AI","training_self",4,6,"CornflowerBlue","f","accept",6,535
"279","id0012",1,17,0,0,"human","training_self",4,6,"Orange","f","accept",6,1104
"280","id0012",1,18,0,0,"human","training_self",8,2,"Orange","j","reject",0,1276
"281","id0012",1,19,0,1,"human","training_self",9,1,"Orange","j","reject",0,890
"282","id0012",1,20,0,0,"human","training_self",8,2,"Orange","j","reject",0,1336
"283","id0012",1,21,0,0,"AI","training_self",6,4,"CornflowerBlue","f","accept",4,1821
"284","id0012",1,22,0,0,"human","training_self",7,3,"Orange","j","reject",0,1110
"285","id0012",1,23,0,0,"AI","training_self",6,4,"CornflowerBlue","f","accept",4,712
"286","id0012",1,24,0,0,"human","training_self",9,1,"Orange","j","reject",0,2686
"287","id0013",0,1,1,0,"practice","Practice",9,1,"black","j","reject",0,1226
"288","id0013",0,2,1,0,"practice","Practice",1,9,"black","f","accept",9,513
"289","id0013",1,1,0,0,"human","training_self",7,3,"CornflowerBlue","f","accept",3,1164
"290","id0013",1,2,0,0,"AI","training_self",8,2,"Orange","f","accept",2,3179
"291","id0013",1,3,0,0,"AI","training_self",4,6,"Orange","f","accept",6,399
"292","id0013",1,4,0,0,"human","training_self",6,4,"CornflowerBlue","f","accept",4,364
"293","id0013",1,5,0,0,"human","training_self",6,4,"CornflowerBlue","f","accept",4,490
"294","id0013",1,6,0,0,"AI","training_self",5,5,"Orange","f","accept",5,470
"295","id0013",1,7,0,0,"AI","training_self",8,2,"Orange","j","reject",0,1226
"296","id0013",1,8,0,0,"human","training_self",7,3,"CornflowerBlue","f","accept",3,2494
"297","id0013",1,9,0,0,"human","training_self",8,2,"CornflowerBlue","j","reject",0,642
"298","id0013",1,10,0,0,"human","training_self",5,5,"CornflowerBlue","f","accept",5,491
"299","id0013",1,11,0,1,"AI","training_self",9,1,"Orange","j","reject",0,510
"300","id0013",1,12,0,0,"AI","training_self",9,1,"Orange","j","reject",0,787
"301","id0013",1,13,0,0,"human","training_self",8,2,"CornflowerBlue","j","reject",0,620
"302","id0013",1,14,0,0,"AI","training_self",7,3,"Orange","f","accept",3,600
"303","id0013",1,15,0,0,"AI","training_self",6,4,"Orange","f","accept",4,483
"304","id0013",1,16,0,0,"human","training_self",4,6,"CornflowerBlue","f","accept",6,586
"305","id0013",1,17,0,0,"human","training_self",5,5,"CornflowerBlue","f","accept",5,423
"306","id0013",1,18,0,0,"AI","training_self",6,4,"Orange","f","accept",4,399
"307","id0013",1,19,0,0,"AI","training_self",7,3,"Orange","f","accept",3,435
"308","id0013",1,20,0,0,"human","training_self",4,6,"CornflowerBlue","f","accept",6,738
"309","id0013",1,21,0,0,"AI","training_self",5,5,"Orange","f","accept",5,760
"310","id0013",1,22,0,0,"AI","training_self",4,6,"Orange","f","accept",6,720
"311","id0013",1,23,0,0,"human","training_self",9,1,"CornflowerBlue","j","reject",0,815
"312","id0013",1,24,0,0,"human","training_self",9,1,"CornflowerBlue","j","reject",0,494
"313","id0014",0,1,1,0,"practice","Practice",10,0,"black","j","reject",0,2719
"314","id0014",0,2,1,0,"practice","Practice",1,9,"black","f","accept",9,2062
"315","id0014",1,1,0,0,"AI","training_others",6,4,"Orange","f","accept",4,2009
"316","id0014",1,2,0,0,"human","training_others",6,4,"CornflowerBlue","f","accept",4,713
"317","id0014",1,3,0,0,"human","training_others",7,3,"CornflowerBlue","f","accept",3,2383
"318","id0014",1,4,0,0,"AI","training_others",5,5,"Orange","f","accept",5,258
"319","id0014",1,5,0,1,"human","training_others",5,5,"CornflowerBlue","f","accept",5,584
"320","id0014",1,6,0,0,"AI","training_others",9,1,"Orange","f","accept",1,1990
"321","id0014",1,7,0,0,"human","training_others",7,3,"CornflowerBlue","f","accept",3,1129
"322","id0014",1,8,0,0,"AI","training_others",7,3,"Orange","f","accept",3,1105
"323","id0014",1,9,0,0,"human","training_others",8,2,"CornflowerBlue","f","accept",2,905
"324","id0014",1,10,0,0,"AI","training_others",6,4,"Orange","f","accept",4,723
"325","id0014",1,11,0,0,"human","training_others",9,1,"CornflowerBlue","f","accept",1,1117
"326","id0014",1,12,0,0,"AI","training_others",5,5,"Orange","f","accept",5,713
"327","id0014",1,13,0,0,"AI","training_others",8,2,"Orange","f","accept",2,519
"328","id0014",1,14,0,0,"AI","training_others",9,1,"Orange","f","accept",1,1070
"329","id0014",1,15,0,0,"human","training_others",4,6,"CornflowerBlue","f","accept",6,873
"330","id0014",1,16,0,0,"human","training_others",9,1,"CornflowerBlue","f","accept",1,2865
"331","id0014",1,17,0,0,"AI","training_others",8,2,"Orange","f","accept",2,1229
"332","id0014",1,18,0,0,"AI","training_others",4,6,"Orange","f","accept",6,752
"333","id0014",1,19,0,0,"human","training_others",6,4,"CornflowerBlue","f","accept",4,849
"334","id0014",1,20,0,0,"human","training_others",4,6,"CornflowerBlue","f","accept",6,644
"335","id0014",1,21,0,0,"human","training_others",8,2,"CornflowerBlue","f","accept",2,1515
"336","id0014",1,22,0,0,"AI","training_others",7,3,"Orange","f","accept",3,1907
"337","id0014",1,23,0,0,"AI","training_others",4,6,"Orange","f","accept",6,618
"338","id0014",1,24,0,0,"human","training_others",5,5,"CornflowerBlue","f","accept",5,4286
"339","id0015",0,1,1,0,"practice","Practice",2,8,"black","f","accept",8,2630
"340","id0015",0,2,1,0,"practice","Practice",2,8,"black","f","accept",8,462
"341","id0015",1,1,0,0,"human","control",4,6,"CornflowerBlue","f","accept",6,359
"342","id0015",1,2,0,0,"human","control",5,5,"CornflowerBlue","f","accept",5,382
"343","id0015",1,3,0,0,"AI","control",7,3,"Orange","f","accept",3,368
"344","id0015",1,4,0,0,"human","control",6,4,"CornflowerBlue","f","accept",4,570
"345","id0015",1,5,0,0,"AI","control",9,1,"Orange","j","reject",0,599
"346","id0015",1,6,0,0,"human","control",4,6,"CornflowerBlue","f","accept",6,254
"347","id0015",1,7,0,0,"AI","control",5,5,"Orange","f","accept",5,287
"348","id0015",1,8,0,0,"human","control",7,3,"CornflowerBlue","f","accept",3,611
"349","id0015",1,9,0,0,"AI","control",8,2,"Orange","j","reject",0,1843
"350","id0015",1,10,0,1,"human","control",6,4,"CornflowerBlue","f","accept",4,338
"351","id0015",1,11,0,0,"AI","control",8,2,"Orange","j","reject",0,284
"352","id0015",1,12,0,0,"human","control",9,1,"CornflowerBlue","j","reject",0,1034
"353","id0015",1,13,0,0,"AI","control",7,3,"Orange","f","accept",3,290
"354","id0015",1,14,0,0,"AI","control",5,5,"Orange","f","accept",5,41
"355","id0015",1,15,0,0,"human","control",9,1,"CornflowerBlue","j","reject",0,380
"356","id0015",1,16,0,0,"AI","control",4,6,"Orange","f","accept",6,1061
"357","id0015",1,17,0,0,"human","control",5,5,"CornflowerBlue","f","accept",5,376
"358","id0015",1,18,0,0,"human","control",8,2,"CornflowerBlue","j","reject",0,365
"359","id0015",1,19,0,0,"AI","control",4,6,"Orange","f","accept",6,281
"360","id0015",1,20,0,0,"human","control",7,3,"CornflowerBlue","j","reject",0,418
"361","id0015",1,21,0,0,"human","control",8,2,"CornflowerBlue","j","reject",0,394
"362","id0015",1,22,0,0,"AI","control",9,1,"Orange","j","reject",0,290
"363","id0015",1,23,0,0,"AI","control",6,4,"Orange","f","accept",4,8170
"364","id0015",1,24,0,0,"AI","control",6,4,"Orange","f","accept",4,298
"365","id0016",0,1,1,0,"practice","Practice",6,4,"black","j","reject",0,1
"366","id0016",0,2,1,0,"practice","Practice",9,1,"black","j","reject",0,1501
"367","id0016",1,1,0,0,"human","training_others",7,3,"Orange","j","reject",0,760
"368","id0016",1,2,0,0,"human","training_others",8,2,"Orange","j","reject",0,376
"369","id0016",1,3,0,0,"AI","training_others",4,6,"CornflowerBlue","f","accept",6,1111
"370","id0016",1,4,0,0,"AI","training_others",8,2,"CornflowerBlue","j","reject",0,534
"371","id0016",1,5,0,0,"AI","training_others",8,2,"CornflowerBlue","j","reject",0,301
"372","id0016",1,6,0,0,"human","training_others",7,3,"Orange","j","reject",0,285
"373","id0016",1,7,0,0,"AI","training_others",7,3,"CornflowerBlue","j","reject",0,294
"374","id0016",1,8,0,0,"AI","training_others",6,4,"CornflowerBlue","j","reject",0,337
"375","id0016",1,9,0,0,"human","training_others",6,4,"Orange","j","reject",0,708
"376","id0016",1,10,0,0,"human","training_others",6,4,"Orange","j","reject",0,339
"377","id0016",1,11,0,0,"AI","training_others",5,5,"CornflowerBlue","f","accept",5,482
"378","id0016",1,12,0,0,"human","training_others",4,6,"Orange","f","accept",6,848
"379","id0016",1,13,0,1,"human","training_others",4,6,"Orange","f","accept",6,386
"380","id0016",1,14,0,0,"human","training_others",9,1,"Orange","j","reject",0,407
"381","id0016",1,15,0,0,"AI","training_others",5,5,"CornflowerBlue","f","accept",5,367
"382","id0016",1,16,0,0,"AI","training_others",4,6,"CornflowerBlue","f","accept",6,498
"383","id0016",1,17,0,0,"human","training_others",8,2,"Orange","j","reject",0,1155
"384","id0016",1,18,0,0,"AI","training_others",9,1,"CornflowerBlue","j","reject",0,470
"385","id0016",1,19,0,0,"human","training_others",9,1,"Orange","j","reject",0,500
"386","id0016",1,20,0,0,"human","training_others",5,5,"Orange","f","accept",5,406
"387","id0016",1,21,0,0,"human","training_others",5,5,"Orange","f","accept",5,324
"388","id0016",1,22,0,0,"AI","training_others",9,1,"CornflowerBlue","j","reject",0,379
"389","id0016",1,23,0,0,"AI","training_others",6,4,"CornflowerBlue","f","accept",4,316
"390","id0016",1,24,0,0,"AI","training_others",7,3,"CornflowerBlue","j","reject",0,302
"391","id0017",0,1,1,0,"practice","Practice",4,6,"black","f","accept",6,23
"392","id0017",0,2,1,0,"practice","Practice",8,2,"black","j","reject",0,1333
"393","id0017",1,1,0,0,"AI","training_others",8,2,"CornflowerBlue","j","reject",0,397
"394","id0017",1,2,0,0,"AI","training_others",9,1,"CornflowerBlue","j","reject",0,326
"395","id0017",1,3,0,0,"AI","training_others",8,2,"CornflowerBlue","j","reject",0,342
"396","id0017",1,4,0,0,"human","training_others",6,4,"Orange","f","accept",4,687
"397","id0017",1,5,0,0,"human","training_others",8,2,"Orange","j","reject",0,330
"398","id0017",1,6,0,0,"AI","training_others",5,5,"CornflowerBlue","f","accept",5,306
"399","id0017",1,7,0,0,"AI","training_others",9,1,"CornflowerBlue","j","reject",0,272
"400","id0017",1,8,0,0,"human","training_others",6,4,"Orange","f","accept",4,326
"401","id0017",1,9,0,0,"AI","training_others",4,6,"CornflowerBlue","f","accept",6,288
"402","id0017",1,10,0,0,"AI","training_others",4,6,"CornflowerBlue","f","accept",6,291
"403","id0017",1,11,0,0,"AI","training_others",5,5,"CornflowerBlue","f","accept",5,266
"404","id0017",1,12,0,0,"AI","training_others",6,4,"CornflowerBlue","f","accept",4,320
"405","id0017",1,13,0,0,"human","training_others",4,6,"Orange","f","accept",6,265
"406","id0017",1,14,0,0,"human","training_others",9,1,"Orange","j","reject",0,273
"407","id0017",1,15,0,0,"AI","training_others",6,4,"CornflowerBlue","f","accept",4,359
"408","id0017",1,16,0,0,"human","training_others",5,5,"Orange","f","accept",5,269
"409","id0017",1,17,0,0,"human","training_others",4,6,"Orange","f","accept",6,292
"410","id0017",1,18,0,0,"AI","training_others",7,3,"CornflowerBlue","j","reject",0,276
"411","id0017",1,19,0,0,"human","training_others",7,3,"Orange","j","reject",0,301
"412","id0017",1,20,0,0,"human","training_others",9,1,"Orange","j","reject",0,338
"413","id0017",1,21,0,0,"AI","training_others",7,3,"CornflowerBlue","j","reject",0,343
"414","id0017",1,22,0,0,"human","training_others",7,3,"Orange","j","reject",0,316
"415","id0017",1,23,0,0,"human","training_others",5,5,"Orange","f","accept",5,300
"416","id0017",1,24,0,1,"human","training_others",8,2,"Orange","j","reject",0,386
"417","id0018",0,1,1,0,"practice","Practice",1,9,"black","f","accept",9,7644
"418","id0018",0,2,1,0,"practice","Practice",6,4,"black","f","accept",4,2263
"419","id0018",1,1,0,0,"AI","training_others",8,2,"Orange","j","reject",0,710
"420","id0018",1,2,0,0,"AI","training_others",4,6,"Orange","f","accept",6,681
"421","id0018",1,3,0,0,"AI","training_others",9,1,"Orange","f","accept",1,620
"422","id0018",1,4,0,0,"human","training_others",8,2,"CornflowerBlue","j","reject",0,1018
"423","id0018",1,5,0,0,"human","training_others",6,4,"CornflowerBlue","f","accept",4,2408
"424","id0018",1,6,0,0,"human","training_others",9,1,"CornflowerBlue","j","reject",0,4890
"425","id0018",1,7,0,0,"AI","training_others",7,3,"Orange","j","reject",0,1651
"426","id0018",1,8,0,0,"AI","training_others",5,5,"Orange","f","accept",5,1147
"427","id0018",1,9,0,0,"human","training_others",5,5,"CornflowerBlue","f","accept",5,370
"428","id0018",1,10,0,0,"human","training_others",7,3,"CornflowerBlue","j","reject",0,501
"429","id0018",1,11,0,0,"human","training_others",7,3,"CornflowerBlue","j","reject",0,524
"430","id0018",1,12,0,0,"AI","training_others",5,5,"Orange","f","accept",5,360
"431","id0018",1,13,0,0,"AI","training_others",7,3,"Orange","j","reject",0,1188
"432","id0018",1,14,0,0,"AI","training_others",6,4,"Orange","f","accept",4,1295
"433","id0018",1,15,0,0,"AI","training_others",6,4,"Orange","f","accept",4,293
"434","id0018",1,16,0,0,"AI","training_others",4,6,"Orange","f","accept",6,1332
"435","id0018",1,17,0,1,"AI","training_others",9,1,"Orange","j","reject",0,10
"436","id0018",1,18,0,0,"human","training_others",9,1,"CornflowerBlue","j","reject",0,2913
"437","id0018",1,19,0,0,"human","training_others",5,5,"CornflowerBlue","f","accept",5,78
"438","id0018",1,20,0,0,"human","training_others",6,4,"CornflowerBlue","f","accept",4,811
"439","id0018",1,21,0,0,"human","training_others",8,2,"CornflowerBlue","j","reject",0,4289
"440","id0018",1,22,0,0,"human","training_others",4,6,"CornflowerBlue","f","accept",6,726
"441","id0018",1,23,0,0,"human","training_others",4,6,"CornflowerBlue","f","accept",6,135
"442","id0018",1,24,0,0,"AI","training_others",8,2,"Orange","j","reject",0,13
"443","id0019",0,1,1,0,"practice","Practice",8,2,"black","f","accept",2,7002
"444","id0019",0,2,1,0,"practice","Practice",8,2,"black","f","accept",2,456
"445","id0019",1,1,0,0,"human","training_others",5,5,"Orange","f","accept",5,479
"446","id0019",1,2,0,0,"AI","training_others",8,2,"CornflowerBlue","f","accept",2,508
"447","id0019",1,3,0,0,"human","training_others",6,4,"Orange","f","accept",4,398
"448","id0019",1,4,0,0,"AI","training_others",9,1,"CornflowerBlue","f","accept",1,380
"449","id0019",1,5,0,0,"AI","training_others",7,3,"CornflowerBlue","f","accept",3,1007
"450","id0019",1,6,0,0,"human","training_others",5,5,"Orange","f","accept",5,966
"451","id0019",1,7,0,0,"human","training_others",7,3,"Orange","f","accept",3,728
"452","id0019",1,8,0,0,"human","training_others",6,4,"Orange","f","accept",4,395
"453","id0019",1,9,0,0,"AI","training_others",7,3,"CornflowerBlue","f","accept",3,389
"454","id0019",1,10,0,0,"AI","training_others",6,4,"CornflowerBlue","f","accept",4,386
"455","id0019",1,11,0,0,"AI","training_others",4,6,"CornflowerBlue","f","accept",6,471
"456","id0019",1,12,0,0,"human","training_others",7,3,"Orange","f","accept",3,648
"457","id0019",1,13,0,0,"AI","training_others",8,2,"CornflowerBlue","f","accept",2,625
"458","id0019",1,14,0,0,"AI","training_others",4,6,"CornflowerBlue","f","accept",6,676
"459","id0019",1,15,0,0,"human","training_others",4,6,"Orange","f","accept",6,519
"460","id0019",1,16,0,1,"AI","training_others",5,5,"CornflowerBlue","f","accept",5,542
"461","id0019",1,17,0,0,"human","training_others",4,6,"Orange","f","accept",6,666
"462","id0019",1,18,0,0,"human","training_others",8,2,"Orange","f","accept",2,429
"463","id0019",1,19,0,0,"AI","training_others",9,1,"CornflowerBlue","f","accept",1,608
"464","id0019",1,20,0,0,"human","training_others",9,1,"Orange","f","accept",1,707
"465","id0019",1,21,0,0,"AI","training_others",5,5,"CornflowerBlue","f","accept",5,415
"466","id0019",1,22,0,0,"human","training_others",8,2,"Orange","f","accept",2,455
"467","id0019",1,23,0,0,"AI","training_others",6,4,"CornflowerBlue","f","accept",4,567
"468","id0019",1,24,0,0,"human","training_others",9,1,"Orange","f","accept",1,618
"469","id0020",0,1,1,0,"practice","Practice",9,1,"black","f","accept",1,7967
"470","id0020",0,2,1,0,"practice","Practice",2,8,"black","j","reject",0,1852
"471","id0020",1,1,0,0,"AI","training_others",5,5,"CornflowerBlue","f","accept",5,1747
"472","id0020",1,2,0,0,"human","training_others",9,1,"Orange","f","accept",1,96
"473","id0020",1,3,0,0,"AI","training_others",8,2,"CornflowerBlue","j","reject",0,1618
"474","id0020",1,4,0,0,"AI","training_others",7,3,"CornflowerBlue","j","reject",0,559
"475","id0020",1,5,0,0,"AI","training_others",9,1,"CornflowerBlue","j","reject",0,38
"476","id0020",1,6,0,0,"human","training_others",4,6,"Orange","j","reject",0,1830
"477","id0020",1,7,0,0,"AI","training_others",5,5,"CornflowerBlue","f","accept",5,758
"478","id0020",1,8,0,0,"AI","training_others",4,6,"CornflowerBlue","f","accept",6,1948
"479","id0020",1,9,0,0,"AI","training_others",8,2,"CornflowerBlue","j","reject",0,723
"480","id0020",1,10,0,0,"AI","training_others",4,6,"CornflowerBlue","f","accept",6,2447
"481","id0020",1,11,0,1,"AI","training_others",9,1,"CornflowerBlue","j","reject",0,278
"482","id0020",1,12,0,0,"AI","training_others",7,3,"CornflowerBlue","j","reject",0,646
"483","id0020",1,13,0,0,"human","training_others",9,1,"Orange","f","accept",1,2608
"484","id0020",1,14,0,0,"human","training_others",5,5,"Orange","f","accept",5,40
"485","id0020",1,15,0,0,"human","training_others",6,4,"Orange","f","accept",4,48
"486","id0020",1,16,0,0,"AI","training_others",6,4,"CornflowerBlue","j","reject",0,1131
"487","id0020",1,17,0,0,"human","training_others",6,4,"Orange","f","accept",4,1223
"488","id0020",1,18,0,0,"human","training_others",4,6,"Orange","j","reject",0,1358
"489","id0020",1,19,0,0,"AI","training_others",6,4,"CornflowerBlue","j","reject",0,610
"490","id0020",1,20,0,0,"human","training_others",8,2,"Orange","f","accept",2,802
"491","id0020",1,21,0,0,"human","training_others",7,3,"Orange","f","accept",3,1968
"492","id0020",1,22,0,0,"human","training_others",5,5,"Orange","f","accept",5,392
"493","id0020",1,23,0,0,"human","training_others",7,3,"Orange","f","accept",3,4113
"494","id0020",1,24,0,0,"human","training_others",8,2,"Orange","f","accept",2,395
"495","id0022",0,1,1,0,"practice","Practice",3,7,"black","f","accept",7,5764
"496","id0022",0,2,1,0,"practice","Practice",5,5,"black","f","accept",5,970
"497","id0022",1,1,0,0,"human","control",9,1,"Orange","j","reject",0,5529
"498","id0022",1,2,0,0,"AI","control",8,2,"CornflowerBlue","f","accept",2,6388
"499","id0022",1,3,0,0,"AI","control",4,6,"CornflowerBlue","f","accept",6,1529
"500","id0022",1,4,0,0,"AI","control",4,6,"CornflowerBlue","f","accept",6,799
"501","id0022",1,5,0,1,"human","control",6,4,"Orange","f","accept",4,1145
"502","id0022",1,6,0,0,"AI","control",6,4,"CornflowerBlue","f","accept",4,1628
"503","id0022",1,7,0,0,"human","control",5,5,"Orange","f","accept",5,618
"504","id0022",1,8,0,0,"human","control",7,3,"Orange","f","accept",3,1121
"505","id0022",1,9,0,0,"AI","control",6,4,"CornflowerBlue","f","accept",4,397
"506","id0022",1,10,0,0,"AI","control",5,5,"CornflowerBlue","f","accept",5,520
"507","id0022",1,11,0,0,"human","control",5,5,"Orange","f","accept",5,597
"508","id0022",1,12,0,0,"human","control",4,6,"Orange","f","accept",6,708
"509","id0022",1,13,0,0,"human","control",7,3,"Orange","f","accept",3,801
"510","id0022",1,14,0,0,"human","control",9,1,"Orange","j","reject",0,1608
"511","id0022",1,15,0,0,"AI","control",9,1,"CornflowerBlue","j","reject",0,1530
"512","id0022",1,16,0,0,"AI","control",7,3,"CornflowerBlue","f","accept",3,920
"513","id0022",1,17,0,0,"AI","control",7,3,"CornflowerBlue","f","accept",3,610
"514","id0022",1,18,0,0,"human","control",4,6,"Orange","f","accept",6,697
"515","id0022",1,19,0,0,"AI","control",5,5,"CornflowerBlue","f","accept",5,420
"516","id0022",1,20,0,0,"human","control",8,2,"Orange","j","reject",0,1111
"517","id0022",1,21,0,0,"human","control",6,4,"Orange","f","accept",4,455
"518","id0022",1,22,0,0,"AI","control",9,1,"CornflowerBlue","j","reject",0,522
"519","id0022",1,23,0,0,"human","control",8,2,"Orange","j","reject",0,1401
"520","id0022",1,24,0,0,"AI","control",8,2,"CornflowerBlue","j","reject",0,458
"521","id0023",0,1,1,0,"practice","Practice",4,6,"black","f","accept",6,1286
"522","id0023",0,2,1,0,"practice","Practice",6,4,"black","f","accept",4,773
"523","id0023",1,1,0,0,"AI","training_self",5,5,"CornflowerBlue","f","accept",5,576
"524","id0023",1,2,0,0,"human","training_self",7,3,"Orange","f","accept",3,1499
"525","id0023",1,3,0,0,"human","training_self",5,5,"Orange","f","accept",5,2625
"526","id0023",1,4,0,0,"human","training_self",8,2,"Orange","f","accept",2,4848
"527","id0023",1,5,0,0,"human","training_self",4,6,"Orange","f","accept",6,1414
"528","id0023",1,6,0,0,"human","training_self",9,1,"Orange","f","accept",1,413
"529","id0023",1,7,0,0,"AI","training_self",4,6,"CornflowerBlue","f","accept",6,481
"530","id0023",1,8,0,0,"AI","training_self",7,3,"CornflowerBlue","f","accept",3,371
"531","id0023",1,9,0,1,"AI","training_self",5,5,"CornflowerBlue","f","accept",5,405
"532","id0023",1,10,0,0,"AI","training_self",9,1,"CornflowerBlue","f","accept",1,1135
"533","id0023",1,11,0,0,"human","training_self",6,4,"Orange","f","accept",4,380
"534","id0023",1,12,0,0,"AI","training_self",4,6,"CornflowerBlue","f","accept",6,315
"535","id0023",1,13,0,0,"AI","training_self",6,4,"CornflowerBlue","f","accept",4,312
"536","id0023",1,14,0,0,"human","training_self",9,1,"Orange","f","accept",1,590
"537","id0023",1,15,0,0,"human","training_self",7,3,"Orange","f","accept",3,275
"538","id0023",1,16,0,0,"human","training_self",4,6,"Orange","f","accept",6,261
"539","id0023",1,17,0,0,"AI","training_self",6,4,"CornflowerBlue","f","accept",4,382
"540","id0023",1,18,0,0,"AI","training_self",8,2,"CornflowerBlue","f","accept",2,303
"541","id0023",1,19,0,0,"human","training_self",6,4,"Orange","f","accept",4,310
"542","id0023",1,20,0,0,"AI","training_self",9,1,"CornflowerBlue","f","accept",1,456
"543","id0023",1,21,0,0,"human","training_self",5,5,"Orange","f","accept",5,409
"544","id0023",1,22,0,0,"AI","training_self",8,2,"CornflowerBlue","f","accept",2,348
"545","id0023",1,23,0,0,"AI","training_self",7,3,"CornflowerBlue","f","accept",3,283
"546","id0023",1,24,0,0,"human","training_self",8,2,"Orange","f","accept",2,302
"547","id0024",0,1,1,0,"practice","Practice",6,4,"black","j","reject",0,1100
"548","id0024",0,2,1,0,"practice","Practice",9,1,"black","j","reject",0,407
"549","id0024",1,1,0,0,"AI","control",4,6,"Orange","f","accept",6,844
"550","id0024",1,2,0,0,"human","control",4,6,"CornflowerBlue","f","accept",6,689
"551","id0024",1,3,0,0,"AI","control",4,6,"Orange","f","accept",6,718
"552","id0024",1,4,0,0,"human","control",6,4,"CornflowerBlue","f","accept",4,1272
"553","id0024",1,5,0,0,"human","control",4,6,"CornflowerBlue","f","accept",6,622
"554","id0024",1,6,0,0,"human","control",5,5,"CornflowerBlue","f","accept",5,381
"555","id0024",1,7,0,0,"AI","control",8,2,"Orange","j","reject",0,610
"556","id0024",1,8,0,0,"AI","control",9,1,"Orange","j","reject",0,459
"557","id0024",1,9,0,0,"human","control",7,3,"CornflowerBlue","j","reject",0,433
"558","id0024",1,10,0,0,"AI","control",5,5,"Orange","f","accept",5,415
"559","id0024",1,11,0,0,"human","control",5,5,"CornflowerBlue","f","accept",5,373
"560","id0024",1,12,0,0,"human","control",7,3,"CornflowerBlue","j","reject",0,406
"561","id0024",1,13,0,0,"human","control",6,4,"CornflowerBlue","f","accept",4,369
"562","id0024",1,14,0,0,"AI","control",6,4,"Orange","f","accept",4,582
"563","id0024",1,15,0,0,"human","control",9,1,"CornflowerBlue","j","reject",0,1011
"564","id0024",1,16,0,0,"human","control",8,2,"CornflowerBlue","j","reject",0,480
"565","id0024",1,17,0,0,"human","control",8,2,"CornflowerBlue","j","reject",0,453
"566","id0024",1,18,0,0,"AI","control",6,4,"Orange","f","accept",4,419
"567","id0024",1,19,0,1,"human","control",9,1,"CornflowerBlue","j","reject",0,414
"568","id0024",1,20,0,0,"AI","control",7,3,"Orange","j","reject",0,323
"569","id0024",1,21,0,0,"AI","control",8,2,"Orange","j","reject",0,363
"570","id0024",1,22,0,0,"AI","control",7,3,"Orange","j","reject",0,405
"571","id0024",1,23,0,0,"AI","control",9,1,"Orange","j","reject",0,361
"572","id0024",1,24,0,0,"AI","control",5,5,"Orange","f","accept",5,295
"573","id0025",0,1,1,0,"practice","Practice",3,7,"black","f","accept",7,6525
"574","id0025",0,2,1,0,"practice","Practice",5,5,"black","f","accept",5,1234
"575","id0025",1,1,0,0,"AI","training_self",7,3,"Orange","j","reject",0,4187
"576","id0025",1,2,0,1,"AI","training_self",8,2,"Orange","j","reject",0,1180
"577","id0025",1,3,0,0,"human","training_self",9,1,"CornflowerBlue","j","reject",0,377
"578","id0025",1,4,0,0,"AI","training_self",6,4,"Orange","f","accept",4,4912
"579","id0025",1,5,0,0,"human","training_self",5,5,"CornflowerBlue","f","accept",5,1828
"580","id0025",1,6,0,0,"human","training_self",8,2,"CornflowerBlue","j","reject",0,1404
"581","id0025",1,7,0,0,"human","training_self",6,4,"CornflowerBlue","f","accept",4,3000
"582","id0025",1,8,0,0,"human","training_self",9,1,"CornflowerBlue","j","reject",0,2878
"583","id0025",1,9,0,0,"AI","training_self",5,5,"Orange","f","accept",5,1648
"584","id0025",1,10,0,0,"AI","training_self",5,5,"Orange","f","accept",5,478
"585","id0025",1,11,0,0,"AI","training_self",7,3,"Orange","j","reject",0,565
"586","id0025",1,12,0,0,"AI","training_self",8,2,"Orange","j","reject",0,1754
"587","id0025",1,13,0,0,"AI","training_self",4,6,"Orange","f","accept",6,2937
"588","id0025",1,14,0,0,"human","training_self",4,6,"CornflowerBlue","f","accept",6,4208
"589","id0025",1,15,0,0,"AI","training_self",4,6,"Orange","f","accept",6,1225
"590","id0025",1,16,0,0,"AI","training_self",6,4,"Orange","f","accept",4,2151
"591","id0025",1,17,0,0,"AI","training_self",9,1,"Orange","j","reject",0,227
"592","id0025",1,18,0,0,"human","training_self",7,3,"CornflowerBlue","j","reject",0,197
"593","id0025",1,19,0,0,"human","training_self",8,2,"CornflowerBlue","j","reject",0,2293
"594","id0025",1,20,0,0,"AI","training_self",9,1,"Orange","j","reject",0,2093
"595","id0025",1,21,0,0,"human","training_self",6,4,"CornflowerBlue","f","accept",4,1657
"596","id0025",1,22,0,0,"human","training_self",4,6,"CornflowerBlue","f","accept",6,2231
"597","id0025",1,23,0,0,"human","training_self",5,5,"CornflowerBlue","f","accept",5,901
"598","id0025",1,24,0,0,"human","training_self",7,3,"CornflowerBlue","j","reject",0,683
"599","id0026",0,1,1,0,"practice","Practice",5,5,"black","f","accept",5,324
"600","id0026",0,2,1,0,"practice","Practice",7,3,"black","f","accept",3,549
"601","id0026",1,1,0,0,"AI","control",4,6,"CornflowerBlue","f","accept",6,349
"602","id0026",1,2,0,0,"AI","control",7,3,"CornflowerBlue","f","accept",3,327
"603","id0026",1,3,0,0,"AI","control",9,1,"CornflowerBlue","f","accept",1,675
"604","id0026",1,4,0,0,"human","control",7,3,"Orange","f","accept",3,330
"605","id0026",1,5,0,0,"human","control",9,1,"Orange","f","accept",1,751
"606","id0026",1,6,0,0,"human","control",9,1,"Orange","j","reject",0,477
"607","id0026",1,7,0,0,"human","control",8,2,"Orange","j","reject",0,907
"608","id0026",1,8,0,0,"human","control",5,5,"Orange","f","accept",5,385
"609","id0026",1,9,0,0,"human","control",6,4,"Orange","f","accept",4,318
"610","id0026",1,10,0,0,"human","control",8,2,"Orange","j","reject",0,428
"611","id0026",1,11,0,0,"AI","control",6,4,"CornflowerBlue","f","accept",4,334
"612","id0026",1,12,0,0,"human","control",4,6,"Orange","f","accept",6,364
"613","id0026",1,13,0,0,"AI","control",5,5,"CornflowerBlue","f","accept",5,390
"614","id0026",1,14,0,0,"human","control",4,6,"Orange","f","accept",6,403
"615","id0026",1,15,0,0,"human","control",6,4,"Orange","f","accept",4,365
"616","id0026",1,16,0,0,"AI","control",8,2,"CornflowerBlue","j","reject",0,430
"617","id0026",1,17,0,0,"human","control",5,5,"Orange","f","accept",5,303
"618","id0026",1,18,0,0,"AI","control",5,5,"CornflowerBlue","f","accept",5,349
"619","id0026",1,19,0,0,"AI","control",8,2,"CornflowerBlue","j","reject",0,1200
"620","id0026",1,20,0,1,"AI","control",7,3,"CornflowerBlue","f","accept",3,624
"621","id0026",1,21,0,0,"AI","control",6,4,"CornflowerBlue","f","accept",4,288
"622","id0026",1,22,0,0,"AI","control",4,6,"CornflowerBlue","f","accept",6,273
"623","id0026",1,23,0,0,"AI","control",9,1,"CornflowerBlue","j","reject",0,757
"624","id0026",1,24,0,0,"human","control",7,3,"Orange","f","accept",3,318
"625","id0027",0,1,1,0,"practice","Practice",6,4,"black","f","accept",4,4270
"626","id0027",0,2,1,0,"practice","Practice",8,2,"black","j","reject",0,393
"627","id0027",1,1,0,0,"human","training_others",5,5,"Orange","f","accept",5,120
"628","id0027",1,2,0,0,"human","training_others",8,2,"Orange","j","reject",0,1593
"629","id0027",1,3,0,0,"AI","training_others",8,2,"CornflowerBlue","j","reject",0,1182
"630","id0027",1,4,0,0,"AI","training_others",8,2,"CornflowerBlue","j","reject",0,1229
"631","id0027",1,5,0,0,"human","training_others",9,1,"Orange","j","reject",0,387
"632","id0027",1,6,0,1,"AI","training_others",6,4,"CornflowerBlue","f","accept",4,1449
"633","id0027",1,7,0,0,"human","training_others",9,1,"Orange","j","reject",0,383
"634","id0027",1,8,0,0,"human","training_others",7,3,"Orange","j","reject",0,1833
"635","id0027",1,9,0,0,"AI","training_others",9,1,"CornflowerBlue","j","reject",0,399
"636","id0027",1,10,0,0,"human","training_others",5,5,"Orange","f","accept",5,940
"637","id0027",1,11,0,0,"AI","training_others",5,5,"CornflowerBlue","f","accept",5,543
"638","id0027",1,12,0,0,"AI","training_others",6,4,"CornflowerBlue","j","reject",0,1324
"639","id0027",1,13,0,0,"human","training_others",4,6,"Orange","f","accept",6,654
"640","id0027",1,14,0,0,"human","training_others",8,2,"Orange","j","reject",0,462
"641","id0027",1,15,0,0,"AI","training_others",9,1,"CornflowerBlue","j","reject",0,446
"642","id0027",1,16,0,0,"human","training_others",7,3,"Orange","j","reject",0,617
"643","id0027",1,17,0,0,"human","training_others",6,4,"Orange","j","reject",0,457
"644","id0027",1,18,0,0,"AI","training_others",4,6,"CornflowerBlue","f","accept",6,398
"645","id0027",1,19,0,0,"AI","training_others",7,3,"CornflowerBlue","j","reject",0,591
"646","id0027",1,20,0,0,"AI","training_others",5,5,"CornflowerBlue","f","accept",5,696
"647","id0027",1,21,0,0,"AI","training_others",7,3,"CornflowerBlue","j","reject",0,851
"648","id0027",1,22,0,0,"human","training_others",6,4,"Orange","j","reject",0,727
"649","id0027",1,23,0,0,"AI","training_others",4,6,"CornflowerBlue","f","accept",6,467
"650","id0027",1,24,0,0,"human","training_others",4,6,"Orange","f","accept",6,2090
"651","id0028",0,1,1,0,"practice","Practice",5,5,"black","f","accept",5,3195
"652","id0028",0,2,1,0,"practice","Practice",10,0,"black","j","reject",0,2204
"653","id0028",1,1,0,0,"AI","training_others",7,3,"CornflowerBlue","j","reject",0,6784
"654","id0028",1,2,0,0,"AI","training_others",7,3,"CornflowerBlue","j","reject",0,2047
"655","id0028",1,3,0,0,"human","training_others",9,1,"Orange","f","accept",1,3934
"656","id0028",1,4,0,0,"human","training_others",5,5,"Orange","f","accept",5,1417
"657","id0028",1,5,0,0,"human","training_others",4,6,"Orange","f","accept",6,1189
"658","id0028",1,6,0,0,"human","training_others",7,3,"Orange","f","accept",3,596
"659","id0028",1,7,0,0,"human","training_others",8,2,"Orange","f","accept",2,872
"660","id0028",1,8,0,0,"AI","training_others",6,4,"CornflowerBlue","f","accept",4,1128
"661","id0028",1,9,0,0,"human","training_others",9,1,"Orange","j","reject",0,1497
"662","id0028",1,10,0,0,"human","training_others",8,2,"Orange","f","accept",2,2390
"663","id0028",1,11,0,0,"AI","training_others",5,5,"CornflowerBlue","f","accept",5,1113
"664","id0028",1,12,0,0,"AI","training_others",9,1,"CornflowerBlue","j","reject",0,2558
"665","id0028",1,13,0,0,"AI","training_others",8,2,"CornflowerBlue","j","reject",0,3400
"666","id0028",1,14,0,0,"human","training_others",5,5,"Orange","f","accept",5,864
"667","id0028",1,15,0,0,"human","training_others",7,3,"Orange","f","accept",3,1185
"668","id0028",1,16,0,0,"AI","training_others",5,5,"CornflowerBlue","f","accept",5,3098
"669","id0028",1,17,0,1,"AI","training_others",4,6,"CornflowerBlue","f","accept",6,1994
"670","id0028",1,18,0,0,"human","training_others",6,4,"Orange","f","accept",4,1034
"671","id0028",1,19,0,0,"human","training_others",4,6,"Orange","f","accept",6,363
"672","id0028",1,20,0,0,"AI","training_others",4,6,"CornflowerBlue","f","accept",6,426
"673","id0028",1,21,0,0,"AI","training_others",6,4,"CornflowerBlue","f","accept",4,3625
"674","id0028",1,22,0,0,"AI","training_others",9,1,"CornflowerBlue","j","reject",0,1313
"675","id0028",1,23,0,0,"human","training_others",6,4,"Orange","f","accept",4,2089
"676","id0028",1,24,0,0,"AI","training_others",8,2,"CornflowerBlue","j","reject",0,253
"677","id0029",0,1,1,0,"practice","Practice",1,9,"black","j","reject",0,6604
"678","id0029",0,2,1,0,"practice","Practice",3,7,"black","f","accept",7,1659
"679","id0029",1,1,0,1,"human","training_self",4,6,"CornflowerBlue","f","accept",6,18273
"680","id0029",1,2,0,0,"AI","training_self",8,2,"Orange","j","reject",0,1797
"681","id0029",1,3,0,0,"human","training_self",6,4,"CornflowerBlue","f","accept",4,3743
"682","id0029",1,4,0,0,"human","training_self",5,5,"CornflowerBlue","f","accept",5,1412
"683","id0029",1,5,0,0,"human","training_self",7,3,"CornflowerBlue","j","reject",0,1411
"684","id0029",1,6,0,0,"AI","training_self",9,1,"Orange","j","reject",0,2428
"685","id0029",1,7,0,0,"AI","training_self",7,3,"Orange","j","reject",0,2159
"686","id0029",1,8,0,0,"human","training_self",8,2,"CornflowerBlue","j","reject",0,1753
"687","id0029",1,9,0,0,"human","training_self",4,6,"CornflowerBlue","f","accept",6,2244
"688","id0029",1,10,0,0,"human","training_self",8,2,"CornflowerBlue","j","reject",0,1927
"689","id0029",1,11,0,0,"AI","training_self",5,5,"Orange","f","accept",5,1373
"690","id0029",1,12,0,0,"AI","training_self",4,6,"Orange","f","accept",6,1660
"691","id0029",1,13,0,0,"human","training_self",9,1,"CornflowerBlue","j","reject",0,539
"692","id0029",1,14,0,0,"human","training_self",9,1,"CornflowerBlue","j","reject",0,1162
"693","id0029",1,15,0,0,"AI","training_self",9,1,"Orange","j","reject",0,1543
"694","id0029",1,16,0,0,"AI","training_self",4,6,"Orange","f","accept",6,4584
"695","id0029",1,17,0,0,"human","training_self",7,3,"CornflowerBlue","j","reject",0,1506
"696","id0029",1,18,0,0,"AI","training_self",8,2,"Orange","j","reject",0,1047
"697","id0029",1,19,0,0,"AI","training_self",7,3,"Orange","j","reject",0,4201
"698","id0029",1,20,0,0,"AI","training_self",6,4,"Orange","f","accept",4,1122
"699","id0029",1,21,0,0,"human","training_self",5,5,"CornflowerBlue","f","accept",5,755
"700","id0029",1,22,0,0,"human","training_self",6,4,"CornflowerBlue","f","accept",4,1367
"701","id0029",1,23,0,0,"AI","training_self",6,4,"Orange","f","accept",4,663
"702","id0029",1,24,0,0,"AI","training_self",5,5,"Orange","f","accept",5,7290
"703","id0030",0,1,1,0,"practice","Practice",1,9,"black","f","accept",9,634
"704","id0030",0,2,1,0,"practice","Practice",2,8,"black","f","accept",8,1096
"705","id0030",1,1,0,0,"AI","training_self",8,2,"Orange","j","reject",0,666
"706","id0030",1,2,0,0,"human","training_self",8,2,"CornflowerBlue","j","reject",0,281
"707","id0030",1,3,0,0,"human","training_self",9,1,"CornflowerBlue","j","reject",0,249
"708","id0030",1,4,0,1,"AI","training_self",6,4,"Orange","f","accept",4,765
"709","id0030",1,5,0,0,"human","training_self",6,4,"CornflowerBlue","f","accept",4,496
"710","id0030",1,6,0,0,"AI","training_self",7,3,"Orange","f","accept",3,482
"711","id0030",1,7,0,0,"human","training_self",4,6,"CornflowerBlue","f","accept",6,336
"712","id0030",1,8,0,0,"AI","training_self",7,3,"Orange","f","accept",3,392
"713","id0030",1,9,0,0,"human","training_self",4,6,"CornflowerBlue","f","accept",6,225
"714","id0030",1,10,0,0,"AI","training_self",4,6,"Orange","f","accept",6,238
"715","id0030",1,11,0,0,"human","training_self",6,4,"CornflowerBlue","f","accept",4,3873
"716","id0030",1,12,0,0,"human","training_self",7,3,"CornflowerBlue","f","accept",3,13400
"717","id0030",1,13,0,0,"human","training_self",7,3,"CornflowerBlue","f","accept",3,45
"718","id0030",1,14,0,0,"AI","training_self",9,1,"Orange","j","reject",0,3125
"719","id0030",1,15,0,0,"AI","training_self",4,6,"Orange","f","accept",6,1027
"720","id0030",1,16,0,0,"AI","training_self",8,2,"Orange","j","reject",0,823
"721","id0030",1,17,0,0,"AI","training_self",6,4,"Orange","f","accept",4,2375
"722","id0030",1,18,0,0,"human","training_self",8,2,"CornflowerBlue","j","reject",0,420
"723","id0030",1,19,0,0,"human","training_self",5,5,"CornflowerBlue","f","accept",5,324
"724","id0030",1,20,0,0,"AI","training_self",9,1,"Orange","j","reject",0,174
"725","id0030",1,21,0,0,"human","training_self",9,1,"CornflowerBlue","j","reject",0,133
"726","id0030",1,22,0,0,"human","training_self",5,5,"CornflowerBlue","f","accept",5,256
"727","id0030",1,23,0,0,"AI","training_self",5,5,"Orange","f","accept",5,315
"728","id0030",1,24,0,0,"AI","training_self",5,5,"Orange","f","accept",5,1035
"729","id0031",0,1,1,0,"practice","Practice",7,3,"black","j","reject",0,3631
"730","id0031",0,2,1,0,"practice","Practice",3,7,"black","f","accept",7,278
"731","id0031",1,1,0,0,"AI","control",7,3,"CornflowerBlue","j","reject",0,457
"732","id0031",1,2,0,0,"human","control",5,5,"Orange","f","accept",5,355
"733","id0031",1,3,0,0,"AI","control",7,3,"CornflowerBlue","j","reject",0,930
"734","id0031",1,4,0,0,"AI","control",9,1,"CornflowerBlue","j","reject",0,311
"735","id0031",1,5,0,0,"AI","control",6,4,"CornflowerBlue","f","accept",4,464
"736","id0031",1,6,0,0,"AI","control",4,6,"CornflowerBlue","f","accept",6,386
"737","id0031",1,7,0,0,"human","control",8,2,"Orange","j","reject",0,320
"738","id0031",1,8,0,0,"human","control",7,3,"Orange","j","reject",0,352
"739","id0031",1,9,0,0,"human","control",4,6,"Orange","f","accept",6,350
"740","id0031",1,10,0,0,"human","control",7,3,"Orange","j","reject",0,419
"741","id0031",1,11,0,0,"human","control",8,2,"Orange","j","reject",0,296
"742","id0031",1,12,0,0,"human","control",6,4,"Orange","f","accept",4,269
"743","id0031",1,13,0,1,"human","control",5,5,"Orange","f","accept",5,326
"744","id0031",1,14,0,0,"AI","control",9,1,"CornflowerBlue","j","reject",0,280
"745","id0031",1,15,0,0,"AI","control",6,4,"CornflowerBlue","f","accept",4,270
"746","id0031",1,16,0,0,"AI","control",5,5,"CornflowerBlue","f","accept",5,260
"747","id0031",1,17,0,0,"human","control",9,1,"Orange","j","reject",0,284
"748","id0031",1,18,0,0,"AI","control",8,2,"CornflowerBlue","j","reject",0,296
"749","id0031",1,19,0,0,"human","control",9,1,"Orange","j","reject",0,264
"750","id0031",1,20,0,0,"human","control",6,4,"Orange","f","accept",4,514
"751","id0031",1,21,0,0,"AI","control",5,5,"CornflowerBlue","f","accept",5,301
"752","id0031",1,22,0,0,"human","control",4,6,"Orange","f","accept",6,349
"753","id0031",1,23,0,0,"AI","control",8,2,"CornflowerBlue","j","reject",0,323
"754","id0031",1,24,0,0,"AI","control",4,6,"CornflowerBlue","f","accept",6,314
"755","id0032",0,1,1,0,"practice","Practice",8,2,"black","j","reject",0,24
"756","id0032",0,2,1,0,"practice","Practice",6,4,"black","f","accept",4,720
"757","id0032",1,1,0,0,"AI","training_self",5,5,"CornflowerBlue","f","accept",5,779
"758","id0032",1,2,0,0,"human","training_self",8,2,"Orange","j","reject",0,622
"759","id0032",1,3,0,0,"AI","training_self",7,3,"CornflowerBlue","j","reject",0,777
"760","id0032",1,4,0,0,"AI","training_self",9,1,"CornflowerBlue","j","reject",0,821
"761","id0032",1,5,0,0,"human","training_self",6,4,"Orange","f","accept",4,783
"762","id0032",1,6,0,0,"AI","training_self",8,2,"CornflowerBlue","j","reject",0,603
"763","id0032",1,7,0,0,"human","training_self",4,6,"Orange","f","accept",6,783
"764","id0032",1,8,0,0,"human","training_self",5,5,"Orange","f","accept",5,430
"765","id0032",1,9,0,0,"AI","training_self",7,3,"CornflowerBlue","f","accept",3,853
"766","id0032",1,10,0,0,"AI","training_self",9,1,"CornflowerBlue","j","reject",0,456
"767","id0032",1,11,0,0,"AI","training_self",5,5,"CornflowerBlue","f","accept",5,461
"768","id0032",1,12,0,0,"human","training_self",5,5,"Orange","f","accept",5,562
"769","id0032",1,13,0,0,"AI","training_self",4,6,"CornflowerBlue","f","accept",6,805
"770","id0032",1,14,0,0,"human","training_self",7,3,"Orange","f","accept",3,779
"771","id0032",1,15,0,0,"human","training_self",9,1,"Orange","j","reject",0,517
"772","id0032",1,16,0,1,"human","training_self",8,2,"Orange","j","reject",0,488
"773","id0032",1,17,0,0,"AI","training_self",6,4,"CornflowerBlue","f","accept",4,760
"774","id0032",1,18,0,0,"AI","training_self",6,4,"CornflowerBlue","f","accept",4,1253
"775","id0032",1,19,0,0,"human","training_self",9,1,"Orange","j","reject",0,524
"776","id0032",1,20,0,0,"AI","training_self",8,2,"CornflowerBlue","j","reject",0,1345
"777","id0032",1,21,0,0,"human","training_self",4,6,"Orange","f","accept",6,895
"778","id0032",1,22,0,0,"AI","training_self",4,6,"CornflowerBlue","f","accept",6,514
"779","id0032",1,23,0,0,"human","training_self",6,4,"Orange","f","accept",4,630
"780","id0032",1,24,0,0,"human","training_self",7,3,"Orange","f","accept",3,517
"781","id0033",0,1,1,0,"practice","Practice",8,2,"black","j","reject",0,23
"782","id0033",0,2,1,0,"practice","Practice",4,6,"black","f","accept",6,700
"783","id0033",1,1,0,1,"AI","training_self",9,1,"Orange","j","reject",0,43
"784","id0033",1,2,0,0,"AI","training_self",6,4,"Orange","j","reject",0,1434
"785","id0033",1,3,0,0,"human","training_self",7,3,"CornflowerBlue","j","reject",0,504
"786","id0033",1,4,0,0,"AI","training_self",4,6,"Orange","f","accept",6,716
"787","id0033",1,5,0,0,"AI","training_self",5,5,"Orange","f","accept",5,109
"788","id0033",1,6,0,0,"human","training_self",5,5,"CornflowerBlue","f","accept",5,413
"789","id0033",1,7,0,0,"human","training_self",8,2,"CornflowerBlue","j","reject",0,476
"790","id0033",1,8,0,0,"AI","training_self",7,3,"Orange","j","reject",0,396
"791","id0033",1,9,0,0,"AI","training_self",8,2,"Orange","j","reject",0,279
"792","id0033",1,10,0,0,"human","training_self",7,3,"CornflowerBlue","j","reject",0,475
"793","id0033",1,11,0,0,"AI","training_self",8,2,"Orange","j","reject",0,506
"794","id0033",1,12,0,0,"human","training_self",5,5,"CornflowerBlue","f","accept",5,361
"795","id0033",1,13,0,0,"human","training_self",6,4,"CornflowerBlue","j","reject",0,604
"796","id0033",1,14,0,0,"human","training_self",4,6,"CornflowerBlue","f","accept",6,639
"797","id0033",1,15,0,0,"human","training_self",9,1,"CornflowerBlue","j","reject",0,253
"798","id0033",1,16,0,0,"AI","training_self",4,6,"Orange","f","accept",6,363
"799","id0033",1,17,0,0,"human","training_self",6,4,"CornflowerBlue","j","reject",0,994
"800","id0033",1,18,0,0,"AI","training_self",9,1,"Orange","j","reject",0,180
"801","id0033",1,19,0,0,"AI","training_self",5,5,"Orange","f","accept",5,432
"802","id0033",1,20,0,0,"human","training_self",9,1,"CornflowerBlue","j","reject",0,410
"803","id0033",1,21,0,0,"human","training_self",4,6,"CornflowerBlue","f","accept",6,842
"804","id0033",1,22,0,0,"AI","training_self",7,3,"Orange","j","reject",0,385
"805","id0033",1,23,0,0,"AI","training_self",6,4,"Orange","j","reject",0,338
"806","id0033",1,24,0,0,"human","training_self",8,2,"CornflowerBlue","j","reject",0,291
"807","id0034",0,1,1,0,"practice","Practice",6,4,"black","j","reject",0,824
"808","id0034",0,2,1,0,"practice","Practice",3,7,"black","f","accept",7,348
"809","id0034",1,1,0,0,"human","control",8,2,"CornflowerBlue","j","reject",0,374
"810","id0034",1,2,0,0,"human","control",9,1,"CornflowerBlue","j","reject",0,535
"811","id0034",1,3,0,0,"AI","control",6,4,"Orange","f","accept",4,282
"812","id0034",1,4,0,0,"human","control",5,5,"CornflowerBlue","f","accept",5,430
"813","id0034",1,5,0,0,"AI","control",9,1,"Orange","j","reject",0,385
"814","id0034",1,6,0,0,"AI","control",8,2,"Orange","j","reject",0,300
"815","id0034",1,7,0,0,"AI","control",5,5,"Orange","f","accept",5,324
"816","id0034",1,8,0,0,"AI","control",7,3,"Orange","j","reject",0,242
"817","id0034",1,9,0,0,"AI","control",6,4,"Orange","f","accept",4,655
"818","id0034",1,10,0,0,"human","control",4,6,"CornflowerBlue","f","accept",6,436
"819","id0034",1,11,0,0,"human","control",5,5,"CornflowerBlue","f","accept",5,533
"820","id0034",1,12,0,0,"AI","control",8,2,"Orange","j","reject",0,289
"821","id0034",1,13,0,0,"human","control",4,6,"CornflowerBlue","f","accept",6,746
"822","id0034",1,14,0,0,"AI","control",9,1,"Orange","j","reject",0,834
"823","id0034",1,15,0,0,"human","control",8,2,"CornflowerBlue","j","reject",0,732
"824","id0034",1,16,0,0,"human","control",6,4,"CornflowerBlue","f","accept",4,370
"825","id0034",1,17,0,0,"human","control",6,4,"CornflowerBlue","f","accept",4,373
"826","id0034",1,18,0,0,"AI","control",7,3,"Orange","j","reject",0,410
"827","id0034",1,19,0,0,"human","control",7,3,"CornflowerBlue","j","reject",0,395
"828","id0034",1,20,0,1,"human","control",7,3,"CornflowerBlue","j","reject",0,2078
"829","id0034",1,21,0,0,"AI","control",4,6,"Orange","f","accept",6,430
"830","id0034",1,22,0,0,"AI","control",4,6,"Orange","f","accept",6,994
"831","id0034",1,23,0,0,"human","control",9,1,"CornflowerBlue","j","reject",0,441
"832","id0034",1,24,0,0,"AI","control",5,5,"Orange","f","accept",5,435
"833","id0035",0,1,1,0,"practice","Practice",4,6,"black","f","accept",6,893
"834","id0035",0,2,1,0,"practice","Practice",6,4,"black","j","reject",0,536
"835","id0035",1,1,0,0,"human","control",9,1,"CornflowerBlue","j","reject",0,1065
"836","id0035",1,2,0,0,"AI","control",9,1,"Orange","j","reject",0,266
"837","id0035",1,3,0,0,"AI","control",9,1,"Orange","j","reject",0,299
"838","id0035",1,4,0,0,"human","control",5,5,"CornflowerBlue","f","accept",5,310
"839","id0035",1,5,0,0,"AI","control",6,4,"Orange","j","reject",0,278
"840","id0035",1,6,0,0,"human","control",8,2,"CornflowerBlue","j","reject",0,364
"841","id0035",1,7,0,0,"human","control",5,5,"CornflowerBlue","f","accept",5,228
"842","id0035",1,8,0,0,"AI","control",4,6,"Orange","f","accept",6,532
"843","id0035",1,9,0,0,"AI","control",5,5,"Orange","f","accept",5,361
"844","id0035",1,10,0,0,"AI","control",7,3,"Orange","j","reject",0,608
"845","id0035",1,11,0,1,"human","control",6,4,"CornflowerBlue","j","reject",0,502
"846","id0035",1,12,0,0,"AI","control",8,2,"Orange","j","reject",0,103
"847","id0035",1,13,0,0,"AI","control",7,3,"Orange","j","reject",0,9
"848","id0035",1,14,0,0,"AI","control",8,2,"Orange","j","reject",0,143
"849","id0035",1,15,0,0,"human","control",7,3,"CornflowerBlue","j","reject",0,149
"850","id0035",1,16,0,0,"AI","control",4,6,"Orange","f","accept",6,245
"851","id0035",1,17,0,0,"AI","control",5,5,"Orange","f","accept",5,107
"852","id0035",1,18,0,0,"human","control",4,6,"CornflowerBlue","f","accept",6,396
"853","id0035",1,19,0,0,"human","control",4,6,"CornflowerBlue","f","accept",6,411
"854","id0035",1,20,0,0,"human","control",8,2,"CornflowerBlue","j","reject",0,383
"855","id0035",1,21,0,0,"human","control",6,4,"CornflowerBlue","j","reject",0,165
"856","id0035",1,22,0,0,"human","control",7,3,"CornflowerBlue","j","reject",0,285
"857","id0035",1,23,0,0,"AI","control",6,4,"Orange","j","reject",0,303
"858","id0035",1,24,0,0,"human","control",9,1,"CornflowerBlue","j","reject",0,303
"859","id0036",0,1,1,0,"practice","Practice",8,2,"black","j","reject",0,1030
"860","id0036",0,2,1,0,"practice","Practice",7,3,"black","j","reject",0,359
"861","id0036",1,1,0,0,"AI","training_others",8,2,"Orange","j","reject",0,659
"862","id0036",1,2,0,0,"AI","training_others",7,3,"Orange","j","reject",0,321
"863","id0036",1,3,0,0,"human","training_others",5,5,"CornflowerBlue","f","accept",5,650
"864","id0036",1,4,0,0,"human","training_others",7,3,"CornflowerBlue","j","reject",0,408
"865","id0036",1,5,0,0,"human","training_others",5,5,"CornflowerBlue","f","accept",5,431
"866","id0036",1,6,0,1,"human","training_others",4,6,"CornflowerBlue","f","accept",6,1049
"867","id0036",1,7,0,0,"human","training_others",6,4,"CornflowerBlue","j","reject",0,2667
"868","id0036",1,8,0,0,"AI","training_others",7,3,"Orange","f","accept",3,810
"869","id0036",1,9,0,0,"AI","training_others",4,6,"Orange","f","accept",6,501
"870","id0036",1,10,0,0,"AI","training_others",9,1,"Orange","j","reject",0,698
"871","id0036",1,11,0,0,"human","training_others",8,2,"CornflowerBlue","j","reject",0,1954
"872","id0036",1,12,0,0,"AI","training_others",5,5,"Orange","f","accept",5,699
"873","id0036",1,13,0,0,"AI","training_others",8,2,"Orange","j","reject",0,609
"874","id0036",1,14,0,0,"AI","training_others",9,1,"Orange","f","accept",1,616
"875","id0036",1,15,0,0,"human","training_others",8,2,"CornflowerBlue","j","reject",0,596
"876","id0036",1,16,0,0,"human","training_others",4,6,"CornflowerBlue","f","accept",6,1975
"877","id0036",1,17,0,0,"AI","training_others",4,6,"Orange","f","accept",6,3793
"878","id0036",1,18,0,0,"AI","training_others",6,4,"Orange","f","accept",4,588
"879","id0036",1,19,0,0,"human","training_others",7,3,"CornflowerBlue","j","reject",0,1208
"880","id0036",1,20,0,0,"human","training_others",9,1,"CornflowerBlue","j","reject",0,316
"881","id0036",1,21,0,0,"human","training_others",9,1,"CornflowerBlue","j","reject",0,292
"882","id0036",1,22,0,0,"human","training_others",6,4,"CornflowerBlue","f","accept",4,2330
"883","id0036",1,23,0,0,"AI","training_others",5,5,"Orange","f","accept",5,417
"884","id0036",1,24,0,0,"AI","training_others",6,4,"Orange","j","reject",0,419
"885","id0037",0,1,1,0,"practice","Practice",9,1,"black","j","reject",0,1004
"886","id0037",0,2,1,0,"practice","Practice",7,3,"black","f","accept",3,594
"887","id0037",1,1,0,0,"human","training_others",9,1,"CornflowerBlue","j","reject",0,446
"888","id0037",1,2,0,0,"AI","training_others",7,3,"Orange","f","accept",3,660
"889","id0037",1,3,0,0,"AI","training_others",8,2,"Orange","f","accept",2,483
"890","id0037",1,4,0,0,"human","training_others",4,6,"CornflowerBlue","f","accept",6,895
"891","id0037",1,5,0,0,"AI","training_others",5,5,"Orange","f","accept",5,611
"892","id0037",1,6,0,0,"AI","training_others",6,4,"Orange","f","accept",4,613
"893","id0037",1,7,0,0,"AI","training_others",6,4,"Orange","f","accept",4,787
"894","id0037",1,8,0,0,"human","training_others",8,2,"CornflowerBlue","f","accept",2,845
"895","id0037",1,9,0,0,"human","training_others",6,4,"CornflowerBlue","f","accept",4,3183
"896","id0037",1,10,0,0,"AI","training_others",4,6,"Orange","f","accept",6,611
"897","id0037",1,11,0,0,"human","training_others",5,5,"CornflowerBlue","f","accept",5,552
"898","id0037",1,12,0,0,"AI","training_others",5,5,"Orange","f","accept",5,634
"899","id0037",1,13,0,0,"human","training_others",5,5,"CornflowerBlue","f","accept",5,702
"900","id0037",1,14,0,0,"human","training_others",9,1,"CornflowerBlue","j","reject",0,693
"901","id0037",1,15,0,0,"human","training_others",7,3,"CornflowerBlue","f","accept",3,1084
"902","id0037",1,16,0,0,"AI","training_others",7,3,"Orange","f","accept",3,887
"903","id0037",1,17,0,0,"human","training_others",8,2,"CornflowerBlue","f","accept",2,528
"904","id0037",1,18,0,1,"AI","training_others",4,6,"Orange","f","accept",6,774
"905","id0037",1,19,0,0,"human","training_others",7,3,"CornflowerBlue","f","accept",3,744
"906","id0037",1,20,0,0,"AI","training_others",8,2,"Orange","f","accept",2,568
"907","id0037",1,21,0,0,"human","training_others",4,6,"CornflowerBlue","f","accept",6,704
"908","id0037",1,22,0,0,"human","training_others",6,4,"CornflowerBlue","f","accept",4,872
"909","id0037",1,23,0,0,"AI","training_others",9,1,"Orange","j","reject",0,3710
"910","id0037",1,24,0,0,"AI","training_others",9,1,"Orange","j","reject",0,509
"911","id0038",0,1,1,0,"practice","Practice",4,6,"black","f","accept",6,1433
"912","id0038",0,2,1,0,"practice","Practice",3,7,"black","f","accept",7,1447
"913","id0038",1,1,0,0,"human","training_self",8,2,"CornflowerBlue","j","reject",0,1030
"914","id0038",1,2,0,0,"AI","training_self",5,5,"Orange","f","accept",5,322
"915","id0038",1,3,0,0,"human","training_self",8,2,"CornflowerBlue","j","reject",0,829
"916","id0038",1,4,0,0,"human","training_self",9,1,"CornflowerBlue","j","reject",0,413
"917","id0038",1,5,0,0,"AI","training_self",9,1,"Orange","j","reject",0,13
"918","id0038",1,6,0,0,"human","training_self",6,4,"CornflowerBlue","j","reject",0,415
"919","id0038",1,7,0,0,"AI","training_self",7,3,"Orange","j","reject",0,471
"920","id0038",1,8,0,0,"AI","training_self",5,5,"Orange","f","accept",5,445
"921","id0038",1,9,0,0,"AI","training_self",6,4,"Orange","j","reject",0,472
"922","id0038",1,10,0,0,"AI","training_self",9,1,"Orange","j","reject",0,499
"923","id0038",1,11,0,0,"human","training_self",9,1,"CornflowerBlue","j","reject",0,685
"924","id0038",1,12,0,0,"human","training_self",7,3,"CornflowerBlue","j","reject",0,442
"925","id0038",1,13,0,0,"human","training_self",6,4,"CornflowerBlue","j","reject",0,385
"926","id0038",1,14,0,0,"AI","training_self",4,6,"Orange","f","accept",6,558
"927","id0038",1,15,0,0,"AI","training_self",8,2,"Orange","j","reject",0,441
"928","id0038",1,16,0,0,"human","training_self",7,3,"CornflowerBlue","j","reject",0,350
"929","id0038",1,17,0,0,"AI","training_self",6,4,"Orange","j","reject",0,446
"930","id0038",1,18,0,0,"AI","training_self",4,6,"Orange","f","accept",6,412
"931","id0038",1,19,0,0,"human","training_self",5,5,"CornflowerBlue","f","accept",5,591
"932","id0038",1,20,0,0,"human","training_self",5,5,"CornflowerBlue","f","accept",5,415
"933","id0038",1,21,0,0,"human","training_self",4,6,"CornflowerBlue","f","accept",6,527
"934","id0038",1,22,0,0,"human","training_self",4,6,"CornflowerBlue","f","accept",6,355
"935","id0038",1,23,0,0,"AI","training_self",7,3,"Orange","j","reject",0,349
"936","id0038",1,24,0,1,"AI","training_self",8,2,"Orange","j","reject",0,1136
"937","id0039",0,1,1,0,"practice","Practice",2,8,"black","f","accept",8,758
"938","id0039",0,2,1,0,"practice","Practice",4,6,"black","f","accept",6,713
"939","id0039",1,1,0,0,"human","training_others",6,4,"CornflowerBlue","f","accept",4,1510
"940","id0039",1,2,0,0,"human","training_others",8,2,"CornflowerBlue","j","reject",0,329
"941","id0039",1,3,0,0,"human","training_others",7,3,"CornflowerBlue","j","reject",0,285
"942","id0039",1,4,0,0,"human","training_others",5,5,"CornflowerBlue","f","accept",5,274
"943","id0039",1,5,0,0,"AI","training_others",6,4,"Orange","f","accept",4,774
"944","id0039",1,6,0,0,"AI","training_others",7,3,"Orange","j","reject",0,375
"945","id0039",1,7,0,0,"AI","training_others",5,5,"Orange","f","accept",5,339
"946","id0039",1,8,0,0,"human","training_others",5,5,"CornflowerBlue","f","accept",5,283
"947","id0039",1,9,0,0,"AI","training_others",9,1,"Orange","j","reject",0,316
"948","id0039",1,10,0,0,"AI","training_others",4,6,"Orange","f","accept",6,324
"949","id0039",1,11,0,0,"human","training_others",4,6,"CornflowerBlue","f","accept",6,419
"950","id0039",1,12,0,0,"human","training_others",6,4,"CornflowerBlue","f","accept",4,379
"951","id0039",1,13,0,0,"AI","training_others",8,2,"Orange","j","reject",0,183
"952","id0039",1,14,0,0,"AI","training_others",5,5,"Orange","f","accept",5,362
"953","id0039",1,15,0,0,"human","training_others",9,1,"CornflowerBlue","j","reject",0,268
"954","id0039",1,16,0,0,"AI","training_others",7,3,"Orange","j","reject",0,357
"955","id0039",1,17,0,1,"human","training_others",4,6,"CornflowerBlue","f","accept",6,293
"956","id0039",1,18,0,0,"AI","training_others",8,2,"Orange","j","reject",0,248
"957","id0039",1,19,0,0,"AI","training_others",4,6,"Orange","f","accept",6,314
"958","id0039",1,20,0,0,"AI","training_others",9,1,"Orange","j","reject",0,262
"959","id0039",1,21,0,0,"AI","training_others",6,4,"Orange","f","accept",4,306
"960","id0039",1,22,0,0,"human","training_others",9,1,"CornflowerBlue","j","reject",0,262
"961","id0039",1,23,0,0,"human","training_others",8,2,"CornflowerBlue","j","reject",0,212
"962","id0039",1,24,0,0,"human","training_others",7,3,"CornflowerBlue","j","reject",0,258
"963","id0040",0,1,1,0,"practice","Practice",6,4,"black","f","accept",4,2515
"964","id0040",0,2,1,0,"practice","Practice",1,9,"black","f","accept",9,411
"965","id0040",1,1,0,0,"human","training_others",4,6,"Orange","f","accept",6,1005
"966","id0040",1,2,0,0,"human","training_others",9,1,"Orange","j","reject",0,8
"967","id0040",1,3,0,0,"human","training_others",9,1,"Orange","j","reject",0,384
"968","id0040",1,4,0,0,"AI","training_others",6,4,"CornflowerBlue","f","accept",4,10
"969","id0040",1,5,0,0,"AI","training_others",4,6,"CornflowerBlue","f","accept",6,209
"970","id0040",1,6,0,0,"human","training_others",7,3,"Orange","f","accept",3,714
"971","id0040",1,7,0,0,"AI","training_others",9,1,"CornflowerBlue","j","reject",0,415
"972","id0040",1,8,0,0,"AI","training_others",9,1,"CornflowerBlue","j","reject",0,289
"973","id0040",1,9,0,0,"human","training_others",7,3,"Orange","f","accept",3,599
"974","id0040",1,10,0,0,"AI","training_others",8,2,"CornflowerBlue","j","reject",0,510
"975","id0040",1,11,0,1,"human","training_others",4,6,"Orange","f","accept",6,804
"976","id0040",1,12,0,0,"AI","training_others",4,6,"CornflowerBlue","f","accept",6,505
"977","id0040",1,13,0,0,"AI","training_others",6,4,"CornflowerBlue","f","accept",4,642
"978","id0040",1,14,0,0,"AI","training_others",5,5,"CornflowerBlue","f","accept",5,605
"979","id0040",1,15,0,0,"AI","training_others",7,3,"CornflowerBlue","j","reject",0,1021
"980","id0040",1,16,0,0,"human","training_others",6,4,"Orange","f","accept",4,1131
"981","id0040",1,17,0,0,"human","training_others",5,5,"Orange","f","accept",5,314
"982","id0040",1,18,0,0,"human","training_others",8,2,"Orange","j","reject",0,942
"983","id0040",1,19,0,0,"AI","training_others",8,2,"CornflowerBlue","j","reject",0,405
"984","id0040",1,20,0,0,"AI","training_others",7,3,"CornflowerBlue","j","reject",0,452
"985","id0040",1,21,0,0,"human","training_others",8,2,"Orange","j","reject",0,376
"986","id0040",1,22,0,0,"human","training_others",5,5,"Orange","f","accept",5,1027
"987","id0040",1,23,0,0,"human","training_others",6,4,"Orange","f","accept",4,393
"988","id0040",1,24,0,0,"AI","training_others",5,5,"CornflowerBlue","f","accept",5,455
"989","id0041",0,1,1,0,"practice","Practice",3,7,"black","f","accept",7,979
"990","id0041",0,2,1,0,"practice","Practice",5,5,"black","f","accept",5,2670
"991","id0041",1,1,0,0,"AI","training_self",6,4,"CornflowerBlue","f","accept",4,1311
"992","id0041",1,2,0,0,"AI","training_self",4,6,"CornflowerBlue","f","accept",6,554
"993","id0041",1,3,0,0,"AI","training_self",9,1,"CornflowerBlue","j","reject",0,5746
"994","id0041",1,4,0,0,"human","training_self",4,6,"Orange","f","accept",6,1183
"995","id0041",1,5,0,0,"human","training_self",5,5,"Orange","f","accept",5,453
"996","id0041",1,6,0,0,"human","training_self",6,4,"Orange","f","accept",4,668
"997","id0041",1,7,0,0,"human","training_self",9,1,"Orange","j","reject",0,297
"998","id0041",1,8,0,1,"human","training_self",9,1,"Orange","j","reject",0,2526
"999","id0041",1,9,0,0,"AI","training_self",7,3,"CornflowerBlue","j","reject",0,679
"1000","id0041",1,10,0,0,"AI","training_self",5,5,"CornflowerBlue","f","accept",5,1143
"1001","id0041",1,11,0,0,"human","training_self",4,6,"Orange","f","accept",6,339
"1002","id0041",1,12,0,0,"AI","training_self",4,6,"CornflowerBlue","f","accept",6,5247
"1003","id0041",1,13,0,0,"AI","training_self",9,1,"CornflowerBlue","j","reject",0,382
"1004","id0041",1,14,0,0,"human","training_self",7,3,"Orange","j","reject",0,2570
"1005","id0041",1,15,0,0,"AI","training_self",6,4,"CornflowerBlue","f","accept",4,1296
"1006","id0041",1,16,0,0,"AI","training_self",8,2,"CornflowerBlue","j","reject",0,318
"1007","id0041",1,17,0,0,"human","training_self",7,3,"Orange","j","reject",0,2652
"1008","id0041",1,18,0,0,"AI","training_self",8,2,"CornflowerBlue","j","reject",0,810
"1009","id0041",1,19,0,0,"AI","training_self",7,3,"CornflowerBlue","j","reject",0,476
"1010","id0041",1,20,0,0,"human","training_self",5,5,"Orange","f","accept",5,10029
"1011","id0041",1,21,0,0,"AI","training_self",5,5,"CornflowerBlue","f","accept",5,76
"1012","id0041",1,22,0,0,"human","training_self",6,4,"Orange","f","accept",4,6961
"1013","id0041",1,23,0,0,"human","training_self",8,2,"Orange","j","reject",0,147
"1014","id0041",1,24,0,0,"human","training_self",8,2,"Orange","j","reject",0,4359
"1015","id0042",0,1,1,0,"practice","Practice",5,5,"black","f","accept",5,5535
"1016","id0042",0,2,1,0,"practice","Practice",3,7,"black","f","accept",7,2113
"1017","id0042",1,1,0,0,"AI","training_others",9,1,"Orange","j","reject",0,3922
"1018","id0042",1,2,0,0,"human","training_others",5,5,"CornflowerBlue","f","accept",5,21
"1019","id0042",1,3,0,0,"AI","training_others",6,4,"Orange","j","reject",0,3199
"1020","id0042",1,4,0,1,"AI","training_others",4,6,"Orange","f","accept",6,2190
"1021","id0042",1,5,0,0,"human","training_others",6,4,"CornflowerBlue","j","reject",0,2366
"1022","id0042",1,6,0,0,"AI","training_others",9,1,"Orange","j","reject",0,1273
"1023","id0042",1,7,0,0,"human","training_others",9,1,"CornflowerBlue","j","reject",0,475
"1024","id0042",1,8,0,0,"AI","training_others",4,6,"Orange","f","accept",6,1996
"1025","id0042",1,9,0,0,"human","training_others",8,2,"CornflowerBlue","j","reject",0,1515
"1026","id0042",1,10,0,0,"human","training_others",9,1,"CornflowerBlue","j","reject",0,3423
"1027","id0042",1,11,0,0,"AI","training_others",6,4,"Orange","j","reject",0,1843
"1028","id0042",1,12,0,0,"human","training_others",5,5,"CornflowerBlue","f","accept",5,378
"1029","id0042",1,13,0,0,"human","training_others",4,6,"CornflowerBlue","f","accept",6,4580
"1030","id0042",1,14,0,0,"human","training_others",7,3,"CornflowerBlue","j","reject",0,316
"1031","id0042",1,15,0,0,"AI","training_others",8,2,"Orange","j","reject",0,1182
"1032","id0042",1,16,0,0,"AI","training_others",7,3,"Orange","j","reject",0,2025
"1033","id0042",1,17,0,0,"AI","training_others",5,5,"Orange","f","accept",5,617
"1034","id0042",1,18,0,0,"AI","training_others",5,5,"Orange","f","accept",5,764
"1035","id0042",1,19,0,0,"human","training_others",6,4,"CornflowerBlue","j","reject",0,1673
"1036","id0042",1,20,0,0,"human","training_others",4,6,"CornflowerBlue","f","accept",6,2690
"1037","id0042",1,21,0,0,"AI","training_others",8,2,"Orange","j","reject",0,1730
"1038","id0042",1,22,0,0,"AI","training_others",7,3,"Orange","j","reject",0,1898
"1039","id0042",1,23,0,0,"human","training_others",8,2,"CornflowerBlue","j","reject",0,3263
"1040","id0042",1,24,0,0,"human","training_others",7,3,"CornflowerBlue","j","reject",0,1437
"1041","id0043",0,1,1,0,"practice","Practice",3,7,"black","f","accept",7,1470
"1042","id0043",0,2,1,0,"practice","Practice",7,3,"black","f","accept",3,691
"1043","id0043",1,1,0,0,"AI","training_others",9,1,"CornflowerBlue","j","reject",0,9324
"1044","id0043",1,2,0,0,"human","training_others",9,1,"Orange","j","reject",0,1197
"1045","id0043",1,3,0,0,"AI","training_others",8,2,"CornflowerBlue","f","accept",2,504
"1046","id0043",1,4,0,0,"human","training_others",6,4,"Orange","f","accept",4,46
"1047","id0043",1,5,0,0,"AI","training_others",4,6,"CornflowerBlue","f","accept",6,555
"1048","id0043",1,6,0,0,"AI","training_others",9,1,"CornflowerBlue","j","reject",0,2216
"1049","id0043",1,7,0,0,"human","training_others",4,6,"Orange","f","accept",6,5015
"1050","id0043",1,8,0,0,"human","training_others",8,2,"Orange","f","accept",2,362
"1051","id0043",1,9,0,0,"AI","training_others",6,4,"CornflowerBlue","f","accept",4,757
"1052","id0043",1,10,0,0,"AI","training_others",5,5,"CornflowerBlue","f","accept",5,354
"1053","id0043",1,11,0,0,"human","training_others",6,4,"Orange","f","accept",4,533
"1054","id0043",1,12,0,0,"human","training_others",8,2,"Orange","f","accept",2,403
"1055","id0043",1,13,0,0,"human","training_others",7,3,"Orange","f","accept",3,368
"1056","id0043",1,14,0,0,"human","training_others",5,5,"Orange","f","accept",5,1216
"1057","id0043",1,15,0,1,"AI","training_others",8,2,"CornflowerBlue","f","accept",2,395
"1058","id0043",1,16,0,0,"human","training_others",7,3,"Orange","f","accept",3,309
"1059","id0043",1,17,0,0,"AI","training_others",7,3,"CornflowerBlue","f","accept",3,344
"1060","id0043",1,18,0,0,"human","training_others",5,5,"Orange","f","accept",5,297
"1061","id0043",1,19,0,0,"AI","training_others",5,5,"CornflowerBlue","f","accept",5,319
"1062","id0043",1,20,0,0,"AI","training_others",4,6,"CornflowerBlue","f","accept",6,466
"1063","id0043",1,21,0,0,"AI","training_others",6,4,"CornflowerBlue","f","accept",4,346
"1064","id0043",1,22,0,0,"human","training_others",9,1,"Orange","j","reject",0,560
"1065","id0043",1,23,0,0,"AI","training_others",7,3,"CornflowerBlue","f","accept",3,447
"1066","id0043",1,24,0,0,"human","training_others",4,6,"Orange","f","accept",6,395
"1067","id0044",0,1,1,0,"practice","Practice",4,6,"black","f","accept",6,268
"1068","id0044",0,2,1,0,"practice","Practice",2,8,"black","f","accept",8,1258
"1069","id0044",1,1,0,1,"AI","training_others",5,5,"CornflowerBlue","f","accept",5,1687
"1070","id0044",1,2,0,0,"human","training_others",6,4,"Orange","j","reject",0,1202
"1071","id0044",1,3,0,0,"AI","training_others",7,3,"CornflowerBlue","j","reject",0,417
"1072","id0044",1,4,0,0,"human","training_others",6,4,"Orange","j","reject",0,403
"1073","id0044",1,5,0,0,"human","training_others",4,6,"Orange","f","accept",6,648
"1074","id0044",1,6,0,0,"AI","training_others",6,4,"CornflowerBlue","f","accept",4,1534
"1075","id0044",1,7,0,0,"human","training_others",9,1,"Orange","j","reject",0,419
"1076","id0044",1,8,0,0,"human","training_others",7,3,"Orange","j","reject",0,2627
"1077","id0044",1,9,0,0,"human","training_others",7,3,"Orange","f","accept",3,1848
"1078","id0044",1,10,0,0,"AI","training_others",7,3,"CornflowerBlue","f","accept",3,396
"1079","id0044",1,11,0,0,"AI","training_others",9,1,"CornflowerBlue","j","reject",0,322
"1080","id0044",1,12,0,0,"AI","training_others",4,6,"CornflowerBlue","f","accept",6,395
"1081","id0044",1,13,0,0,"AI","training_others",8,2,"CornflowerBlue","j","reject",0,1754
"1082","id0044",1,14,0,0,"human","training_others",5,5,"Orange","f","accept",5,476
"1083","id0044",1,15,0,0,"human","training_others",5,5,"Orange","f","accept",5,730
"1084","id0044",1,16,0,0,"human","training_others",8,2,"Orange","j","reject",0,835
"1085","id0044",1,17,0,0,"human","training_others",8,2,"Orange","j","reject",0,401
"1086","id0044",1,18,0,0,"AI","training_others",5,5,"CornflowerBlue","f","accept",5,506
"1087","id0044",1,19,0,0,"AI","training_others",6,4,"CornflowerBlue","f","accept",4,2047
"1088","id0044",1,20,0,0,"AI","training_others",8,2,"CornflowerBlue","j","reject",0,4258
"1089","id0044",1,21,0,0,"human","training_others",4,6,"Orange","f","accept",6,498
"1090","id0044",1,22,0,0,"AI","training_others",4,6,"CornflowerBlue","f","accept",6,546
"1091","id0044",1,23,0,0,"human","training_others",9,1,"Orange","j","reject",0,616
"1092","id0044",1,24,0,0,"AI","training_others",9,1,"CornflowerBlue","j","reject",0,452
"1093","id0045",0,1,1,0,"practice","Practice",2,8,"black","f","accept",8,12051
"1094","id0045",0,2,1,0,"practice","Practice",4,6,"black","f","accept",6,584
"1095","id0045",1,1,0,0,"human","training_others",5,5,"Orange","f","accept",5,1886
"1096","id0045",1,2,0,0,"AI","training_others",5,5,"CornflowerBlue","f","accept",5,644
"1097","id0045",1,3,0,0,"AI","training_others",7,3,"CornflowerBlue","j","reject",0,472
"1098","id0045",1,4,0,0,"human","training_others",5,5,"Orange","f","accept",5,572
"1099","id0045",1,5,0,0,"AI","training_others",7,3,"CornflowerBlue","j","reject",0,22
"1100","id0045",1,6,0,0,"human","training_others",6,4,"Orange","f","accept",4,305
"1101","id0045",1,7,0,0,"AI","training_others",8,2,"CornflowerBlue","j","reject",0,330
"1102","id0045",1,8,0,0,"human","training_others",4,6,"Orange","j","reject",0,535
"1103","id0045",1,9,0,0,"human","training_others",6,4,"Orange","f","accept",4,536
"1104","id0045",1,10,0,0,"human","training_others",8,2,"Orange","j","reject",0,465
"1105","id0045",1,11,0,0,"AI","training_others",6,4,"CornflowerBlue","f","accept",4,38
"1106","id0045",1,12,0,0,"AI","training_others",9,1,"CornflowerBlue","j","reject",0,135
"1107","id0045",1,13,0,1,"human","training_others",7,3,"Orange","f","accept",3,3330
"1108","id0045",1,14,0,0,"AI","training_others",4,6,"CornflowerBlue","f","accept",6,507
"1109","id0045",1,15,0,0,"AI","training_others",4,6,"CornflowerBlue","f","accept",6,462
"1110","id0045",1,16,0,0,"AI","training_others",5,5,"CornflowerBlue","f","accept",5,246
"1111","id0045",1,17,0,0,"human","training_others",7,3,"Orange","j","reject",0,133
"1112","id0045",1,18,0,0,"AI","training_others",8,2,"CornflowerBlue","j","reject",0,195
"1113","id0045",1,19,0,0,"human","training_others",8,2,"Orange","j","reject",0,883
"1114","id0045",1,20,0,0,"human","training_others",4,6,"Orange","f","accept",6,154
"1115","id0045",1,21,0,0,"human","training_others",9,1,"Orange","j","reject",0,394
"1116","id0045",1,22,0,0,"AI","training_others",9,1,"CornflowerBlue","j","reject",0,222
"1117","id0045",1,23,0,0,"human","training_others",9,1,"Orange","j","reject",0,305
"1118","id0045",1,24,0,0,"AI","training_others",6,4,"CornflowerBlue","f","accept",4,548
"1119","id0046",0,1,1,0,"practice","Practice",4,6,"black","f","accept",6,8298
"1120","id0046",0,2,1,0,"practice","Practice",5,5,"black","f","accept",5,631
"1121","id0046",1,1,0,0,"human","control",5,5,"Orange","f","accept",5,907
"1122","id0046",1,2,0,1,"AI","control",5,5,"CornflowerBlue","f","accept",5,978
"1123","id0046",1,3,0,0,"human","control",9,1,"Orange","j","reject",0,3007
"1124","id0046",1,4,0,0,"human","control",6,4,"Orange","f","accept",4,2043
"1125","id0046",1,5,0,0,"human","control",8,2,"Orange","j","reject",0,176
"1126","id0046",1,6,0,0,"human","control",7,3,"Orange","f","accept",3,766
"1127","id0046",1,7,0,0,"AI","control",8,2,"CornflowerBlue","j","reject",0,2259
"1128","id0046",1,8,0,0,"AI","control",9,1,"CornflowerBlue","j","reject",0,461
"1129","id0046",1,9,0,0,"AI","control",6,4,"CornflowerBlue","f","accept",4,683
"1130","id0046",1,10,0,0,"human","control",8,2,"Orange","j","reject",0,595
"1131","id0046",1,11,0,0,"human","control",7,3,"Orange","f","accept",3,796
"1132","id0046",1,12,0,0,"AI","control",6,4,"CornflowerBlue","f","accept",4,963
"1133","id0046",1,13,0,0,"human","control",5,5,"Orange","f","accept",5,620
"1134","id0046",1,14,0,0,"AI","control",4,6,"CornflowerBlue","f","accept",6,505
"1135","id0046",1,15,0,0,"human","control",6,4,"Orange","f","accept",4,440
"1136","id0046",1,16,0,0,"AI","control",5,5,"CornflowerBlue","f","accept",5,695
"1137","id0046",1,17,0,0,"human","control",9,1,"Orange","j","reject",0,153
"1138","id0046",1,18,0,0,"human","control",4,6,"Orange","f","accept",6,2053
"1139","id0046",1,19,0,0,"AI","control",4,6,"CornflowerBlue","f","accept",6,1179
"1140","id0046",1,20,0,0,"AI","control",7,3,"CornflowerBlue","f","accept",3,2501
"1141","id0046",1,21,0,0,"AI","control",8,2,"CornflowerBlue","j","reject",0,858
"1142","id0046",1,22,0,0,"AI","control",9,1,"CornflowerBlue","j","reject",0,440
"1143","id0046",1,23,0,0,"AI","control",7,3,"CornflowerBlue","f","accept",3,300
"1144","id0046",1,24,0,0,"human","control",4,6,"Orange","f","accept",6,2312
"1145","id0047",0,1,1,0,"practice","Practice",3,7,"black","f","accept",7,774
"1146","id0047",0,2,1,0,"practice","Practice",9,1,"black","j","reject",0,754
"1147","id0047",1,1,0,1,"human","control",8,2,"CornflowerBlue","f","accept",2,819
"1148","id0047",1,2,0,0,"AI","control",8,2,"Orange","f","accept",2,1128
"1149","id0047",1,3,0,0,"AI","control",9,1,"Orange","j","reject",0,611
"1150","id0047",1,4,0,0,"AI","control",7,3,"Orange","f","accept",3,491
"1151","id0047",1,5,0,0,"human","control",7,3,"CornflowerBlue","f","accept",3,411
"1152","id0047",1,6,0,0,"human","control",8,2,"CornflowerBlue","j","reject",0,1765
"1153","id0047",1,7,0,0,"human","control",6,4,"CornflowerBlue","f","accept",4,336
"1154","id0047",1,8,0,0,"AI","control",5,5,"Orange","f","accept",5,389
"1155","id0047",1,9,0,0,"human","control",4,6,"CornflowerBlue","f","accept",6,337
"1156","id0047",1,10,0,0,"human","control",6,4,"CornflowerBlue","f","accept",4,336
"1157","id0047",1,11,0,0,"AI","control",4,6,"Orange","f","accept",6,521
"1158","id0047",1,12,0,0,"AI","control",6,4,"Orange","f","accept",4,416
"1159","id0047",1,13,0,0,"AI","control",7,3,"Orange","f","accept",3,427
"1160","id0047",1,14,0,0,"human","control",9,1,"CornflowerBlue","j","reject",0,545
"1161","id0047",1,15,0,0,"AI","control",4,6,"Orange","f","accept",6,511
"1162","id0047",1,16,0,0,"AI","control",9,1,"Orange","j","reject",0,533
"1163","id0047",1,17,0,0,"human","control",9,1,"CornflowerBlue","j","reject",0,516
"1164","id0047",1,18,0,0,"AI","control",8,2,"Orange","f","accept",2,11
"1165","id0047",1,19,0,0,"AI","control",6,4,"Orange","f","accept",4,479
"1166","id0047",1,20,0,0,"human","control",5,5,"CornflowerBlue","f","accept",5,518
"1167","id0047",1,21,0,0,"AI","control",5,5,"Orange","f","accept",5,432
"1168","id0047",1,22,0,0,"human","control",5,5,"CornflowerBlue","f","accept",5,459
"1169","id0047",1,23,0,0,"human","control",4,6,"CornflowerBlue","f","accept",6,395
"1170","id0047",1,24,0,0,"human","control",7,3,"CornflowerBlue","f","accept",3,386
"1171","id0048",0,1,1,0,"practice","Practice",4,6,"black","j","reject",0,1089
"1172","id0048",0,2,1,0,"practice","Practice",5,5,"black","f","accept",5,792
"1173","id0048",1,1,0,0,"AI","control",8,2,"Orange","f","accept",2,7
"1174","id0048",1,2,0,0,"human","control",9,1,"CornflowerBlue","j","reject",0,1382
"1175","id0048",1,3,0,0,"AI","control",7,3,"Orange","j","reject",0,1331
"1176","id0048",1,4,0,0,"AI","control",6,4,"Orange","j","reject",0,1524
"1177","id0048",1,5,0,0,"AI","control",4,6,"Orange","f","accept",6,961
"1178","id0048",1,6,0,0,"human","control",6,4,"CornflowerBlue","f","accept",4,1099
"1179","id0048",1,7,0,0,"AI","control",5,5,"Orange","f","accept",5,1522
"1180","id0048",1,8,0,0,"AI","control",9,1,"Orange","f","accept",1,1917
"1181","id0048",1,9,0,0,"human","control",5,5,"CornflowerBlue","f","accept",5,796
"1182","id0048",1,10,0,0,"human","control",6,4,"CornflowerBlue","f","accept",4,2034
"1183","id0048",1,11,0,0,"human","control",5,5,"CornflowerBlue","f","accept",5,543
"1184","id0048",1,12,0,0,"human","control",7,3,"CornflowerBlue","j","reject",0,1263
"1185","id0048",1,13,0,0,"human","control",8,2,"CornflowerBlue","j","reject",0,603
"1186","id0048",1,14,0,0,"human","control",4,6,"CornflowerBlue","f","accept",6,952
"1187","id0048",1,15,0,0,"human","control",4,6,"CornflowerBlue","f","accept",6,1080
"1188","id0048",1,16,0,1,"AI","control",9,1,"Orange","j","reject",0,482
"1189","id0048",1,17,0,0,"human","control",9,1,"CornflowerBlue","j","reject",0,532
"1190","id0048",1,18,0,0,"AI","control",7,3,"Orange","f","accept",3,1684
"1191","id0048",1,19,0,0,"AI","control",8,2,"Orange","j","reject",0,553
"1192","id0048",1,20,0,0,"AI","control",5,5,"Orange","f","accept",5,423
"1193","id0048",1,21,0,0,"AI","control",4,6,"Orange","f","accept",6,507
"1194","id0048",1,22,0,0,"AI","control",6,4,"Orange","f","accept",4,558
"1195","id0048",1,23,0,0,"human","control",8,2,"CornflowerBlue","j","reject",0,573
"1196","id0048",1,24,0,0,"human","control",7,3,"CornflowerBlue","j","reject",0,548
"1197","id0049",0,1,1,0,"practice","Practice",10,0,"black","j","reject",0,5084
"1198","id0049",0,2,1,0,"practice","Practice",2,8,"black","f","accept",8,694
"1199","id0049",1,1,0,0,"human","control",7,3,"CornflowerBlue","f","accept",3,827
"1200","id0049",1,2,0,0,"AI","control",9,1,"Orange","f","accept",1,661
"1201","id0049",1,3,0,0,"AI","control",5,5,"Orange","f","accept",5,375
"1202","id0049",1,4,0,0,"human","control",9,1,"CornflowerBlue","f","accept",1,798
"1203","id0049",1,5,0,0,"AI","control",9,1,"Orange","f","accept",1,393
"1204","id0049",1,6,0,0,"human","control",6,4,"CornflowerBlue","f","accept",4,720
"1205","id0049",1,7,0,0,"AI","control",6,4,"Orange","f","accept",4,769
"1206","id0049",1,8,0,0,"human","control",9,1,"CornflowerBlue","f","accept",1,2565
"1207","id0049",1,9,0,1,"AI","control",8,2,"Orange","f","accept",2,6790
"1208","id0049",1,10,0,0,"human","control",5,5,"CornflowerBlue","f","accept",5,1421
"1209","id0049",1,11,0,0,"AI","control",8,2,"Orange","f","accept",2,3586
"1210","id0049",1,12,0,0,"AI","control",7,3,"Orange","f","accept",3,575
"1211","id0049",1,13,0,0,"human","control",8,2,"CornflowerBlue","f","accept",2,828
"1212","id0049",1,14,0,0,"human","control",4,6,"CornflowerBlue","f","accept",6,495
"1213","id0049",1,15,0,0,"human","control",7,3,"CornflowerBlue","f","accept",3,947
"1214","id0049",1,16,0,0,"AI","control",5,5,"Orange","f","accept",5,914
"1215","id0049",1,17,0,0,"human","control",6,4,"CornflowerBlue","f","accept",4,880
"1216","id0049",1,18,0,0,"human","control",8,2,"CornflowerBlue","f","accept",2,1856
"1217","id0049",1,19,0,0,"human","control",5,5,"CornflowerBlue","f","accept",5,853
"1218","id0049",1,20,0,0,"AI","control",4,6,"Orange","f","accept",6,4802
"1219","id0049",1,21,0,0,"human","control",4,6,"CornflowerBlue","f","accept",6,949
"1220","id0049",1,22,0,0,"AI","control",4,6,"Orange","f","accept",6,5458
"1221","id0049",1,23,0,0,"AI","control",6,4,"Orange","f","accept",4,3567
"1222","id0049",1,24,0,0,"AI","control",7,3,"Orange","f","accept",3,754
"1223","id0050",0,1,1,0,"practice","Practice",7,3,"black","j","reject",0,1802
"1224","id0050",0,2,1,0,"practice","Practice",8,2,"black","j","reject",0,707
"1225","id0050",1,1,0,0,"human","training_others",4,6,"CornflowerBlue","f","accept",6,648
"1226","id0050",1,2,0,0,"human","training_others",9,1,"CornflowerBlue","j","reject",0,673
"1227","id0050",1,3,0,0,"AI","training_others",7,3,"Orange","j","reject",0,539
"1228","id0050",1,4,0,0,"AI","training_others",6,4,"Orange","j","reject",0,475
