"","id","block","trial_number","practice_trial","random_trial","opponent","training_condition","proposer_offer","receiver_offer","color","response_key","response","outcome","reaction_time"
"1","id0001",0,1,1,0,"practice","Practice",9,1,"black","j","reject",0,909
"2","id0001",0,2,1,0,"practice","Practice",1,9,"black","f","accept",9,1696
"3","id0001",1,1,0,0,"human","training_self",5,5,"GoldenRod","f","accept",5,1749
"4","id0001",1,2,0,0,"human","training_self",4,6,"GoldenRod","f","accept",6,938
"5","id0001",1,3,0,0,"human","training_self",9,1,"GoldenRod","f","accept",1,2057
"6","id0001",1,4,0,0,"human","training_self",6,4,"GoldenRod","f","accept",4,1987
"7","id0001",1,5,0,1,"AI","training_self",9,1,"DarkOrchid","f","accept",1,78
"8","id0001",1,6,0,0,"human","training_self",7,3,"GoldenRod","f","accept",3,800
"9","id0001",1,7,0,0,"AI","training_self",8,2,"DarkOrchid","f","accept",2,773
"10","id0001",1,8,0,0,"human","training_self",8,2,"GoldenRod","f","accept",2,639
"11","id0001",1,9,0,0,"human","training_self",9,1,"GoldenRod","f","accept",1,495
"12","id0001",1,10,0,0,"AI","training_self",8,2,"DarkOrchid","f","accept",2,447
"13","id0001",1,11,0,0,"AI","training_self",6,4,"DarkOrchid","f","accept",4,447
"14","id0001",1,12,0,0,"human","training_self",6,4,"GoldenRod","f","accept",4,77
"15","id0001",1,13,0,0,"human","training_self",7,3,"GoldenRod","f","accept",3,383
"16","id0001",1,14,0,0,"AI","training_self",5,5,"DarkOrchid","f","accept",5,513
"17","id0001",1,15,0,0,"human","training_self",8,2,"GoldenRod","f","accept",2,586
"18","id0001",1,16,0,0,"AI","training_self",4,6,"DarkOrchid","f","accept",6,590
"19","id0001",1,17,0,0,"AI","training_self",7,3,"DarkOrchid","f","accept",3,474
"20","id0001",1,18,0,0,"human","training_self",4,6,"GoldenRod","f","accept",6,570
"21","id0001",1,19,0,0,"AI","training_self",7,3,"DarkOrchid","f","accept",3,570
"22","id0001",1,20,0,0,"AI","training_self",8,2,"DarkOrchid","f","accept",2,585
"23","id0001",1,21,0,0,"AI","training_self",9,1,"DarkOrchid","f","accept",1,514
"24","id0001",1,22,0,0,"AI","training_self",6,4,"DarkOrchid","f","accept",4,394
"25","id0001",1,23,0,0,"AI","training_self",6,4,"DarkOrchid","f","accept",4,371
"26","id0001",1,24,0,0,"human","training_self",5,5,"GoldenRod","f","accept",5,367
"27","id0002",0,1,1,0,"practice","Practice",8,2,"black","f","accept",2,21197
"28","id0002",0,2,1,0,"practice","Practice",8,2,"black","f","accept",2,10233
"29","id0002",1,1,0,0,"human","training_others",8,2,"GoldenRod","f","accept",2,2002
"30","id0002",1,2,0,0,"human","training_others",8,2,"GoldenRod","f","accept",2,677
"31","id0002",1,3,0,0,"AI","training_others",5,5,"DarkOrchid","f","accept",5,237
"32","id0002",1,4,0,0,"human","training_others",6,4,"GoldenRod","f","accept",4,517
"33","id0002",1,5,0,0,"AI","training_others",6,4,"DarkOrchid","f","accept",4,184
"34","id0002",1,6,0,0,"human","training_others",4,6,"GoldenRod","f","accept",6,1032
"35","id0002",1,7,0,0,"human","training_others",7,3,"GoldenRod","f","accept",3,104
"36","id0002",1,8,0,0,"AI","training_others",9,1,"DarkOrchid","f","accept",1,6264
"37","id0002",1,9,0,0,"human","training_others",5,5,"GoldenRod","f","accept",5,416
"38","id0002",1,10,0,0,"AI","training_others",4,6,"DarkOrchid","f","accept",6,1883
"39","id0002",1,11,0,0,"AI","training_others",8,2,"DarkOrchid","f","accept",2,795
"40","id0002",1,12,0,0,"AI","training_others",7,3,"DarkOrchid","f","accept",3,1097
"41","id0002",1,13,0,0,"AI","training_others",6,4,"DarkOrchid","f","accept",4,1806
"42","id0002",1,14,0,0,"human","training_others",9,1,"GoldenRod","f","accept",1,233
"43","id0002",1,15,0,0,"human","training_others",5,5,"GoldenRod","f","accept",5,1108
"44","id0002",1,16,0,0,"AI","training_others",4,6,"DarkOrchid","f","accept",6,9918
"45","id0002",1,17,0,0,"human","training_others",4,6,"GoldenRod","f","accept",6,863
"46","id0002",1,18,0,0,"human","training_others",7,3,"GoldenRod","f","accept",3,1135
"47","id0002",1,19,0,0,"AI","training_others",4,6,"DarkOrchid","f","accept",6,889
"48","id0002",1,20,0,0,"human","training_others",6,4,"GoldenRod","f","accept",4,1180
"49","id0002",1,21,0,0,"AI","training_others",4,6,"DarkOrchid","f","accept",6,1225
"50","id0002",1,22,0,0,"AI","training_others",4,6,"DarkOrchid","f","accept",6,1027
"51","id0002",1,23,0,1,"AI","training_others",4,6,"DarkOrchid","f","accept",6,1122
"52","id0002",1,24,0,0,"human","training_others",9,1,"GoldenRod","f","accept",1,1150
"53","id0005",0,1,1,0,"practice","Practice",8,2,"black","j","reject",0,418
"54","id0005",0,2,1,0,"practice","Practice",1,9,"black","f","accept",9,1977
"55","id0005",1,1,0,0,"AI","control",7,3,"GoldenRod","j","reject",0,417
"56","id0005",1,2,0,0,"human","control",7,3,"DarkOrchid","j","reject",0,713
"57","id0005",1,3,0,0,"AI","control",9,1,"GoldenRod","j","reject",0,419
"58","id0005",1,4,0,0,"AI","control",4,6,"GoldenRod","f","accept",6,476
"59","id0005",1,5,0,0,"AI","control",6,4,"GoldenRod","j","reject",0,612
"60","id0005",1,6,0,0,"human","control",5,5,"DarkOrchid","f","accept",5,425
"61","id0005",1,7,0,0,"human","control",4,6,"DarkOrchid","f","accept",6,449
"62","id0005",1,8,0,0,"human","control",8,2,"DarkOrchid","j","reject",0,564
"63","id0005",1,9,0,0,"AI","control",5,5,"GoldenRod","f","accept",5,482
"64","id0005",1,10,0,0,"AI","control",5,5,"GoldenRod","f","accept",5,14115
"65","id0005",1,11,0,0,"human","control",9,1,"DarkOrchid","j","reject",0,3316
"66","id0005",1,12,0,0,"human","control",6,4,"DarkOrchid","j","reject",0,2442
"67","id0005",1,13,0,0,"AI","control",8,2,"GoldenRod","j","reject",0,8072
"68","id0005",1,14,0,0,"AI","control",8,2,"GoldenRod","j","reject",0,1922
"69","id0005",1,15,0,0,"AI","control",7,3,"GoldenRod","j","reject",0,2118
"70","id0005",1,16,0,0,"AI","control",4,6,"GoldenRod","f","accept",6,1355
"71","id0005",1,17,0,0,"human","control",4,6,"DarkOrchid","f","accept",6,4877
"72","id0005",1,18,0,0,"human","control",9,1,"DarkOrchid","j","reject",0,435
"73","id0005",1,19,0,0,"human","control",6,4,"DarkOrchid","j","reject",0,571
"74","id0005",1,20,0,0,"human","control",5,5,"DarkOrchid","f","accept",5,777
"75","id0005",1,21,0,0,"human","control",8,2,"DarkOrchid","j","reject",0,2095
"76","id0005",1,22,0,0,"AI","control",5,5,"GoldenRod","f","accept",5,524
"77","id0005",1,23,0,0,"human","control",7,3,"DarkOrchid","j","reject",0,2099
"78","id0005",1,24,0,1,"AI","control",4,6,"GoldenRod","f","accept",6,5012
"79","id0006",0,1,1,0,"practice","Practice",6,4,"black","f","accept",4,673
"80","id0006",0,2,1,0,"practice","Practice",4,6,"black","f","accept",6,517
"81","id0006",1,1,0,0,"AI","training_self",5,5,"DarkOrchid","f","accept",5,999
"82","id0006",1,2,0,0,"human","training_self",7,3,"GoldenRod","f","accept",3,578
"83","id0006",1,3,0,0,"human","training_self",5,5,"GoldenRod","f","accept",5,1021
"84","id0006",1,4,0,0,"AI","training_self",6,4,"DarkOrchid","f","accept",4,451
"85","id0006",1,5,0,0,"AI","training_self",4,6,"DarkOrchid","f","accept",6,680
"86","id0006",1,6,0,0,"human","training_self",6,4,"GoldenRod","f","accept",4,475
"87","id0006",1,7,0,0,"human","training_self",8,2,"GoldenRod","f","accept",2,574
"88","id0006",1,8,0,0,"human","training_self",9,1,"GoldenRod","f","accept",1,423
"89","id0006",1,9,0,0,"AI","training_self",9,1,"DarkOrchid","f","accept",1,411
"90","id0006",1,10,0,0,"human","training_self",6,4,"GoldenRod","f","accept",4,504
"91","id0006",1,11,0,0,"human","training_self",4,6,"GoldenRod","f","accept",6,521
"92","id0006",1,12,0,1,"AI","training_self",6,4,"DarkOrchid","f","accept",4,473
"93","id0006",1,13,0,0,"AI","training_self",8,2,"DarkOrchid","f","accept",2,657
"94","id0006",1,14,0,0,"human","training_self",5,5,"GoldenRod","f","accept",5,381
"95","id0006",1,15,0,0,"human","training_self",4,6,"GoldenRod","f","accept",6,312
"96","id0006",1,16,0,0,"AI","training_self",7,3,"DarkOrchid","f","accept",3,314
"97","id0006",1,17,0,0,"human","training_self",8,2,"GoldenRod","f","accept",2,445
"98","id0006",1,18,0,0,"AI","training_self",4,6,"DarkOrchid","f","accept",6,946
"99","id0006",1,19,0,0,"AI","training_self",4,6,"DarkOrchid","f","accept",6,504
"100","id0006",1,20,0,0,"human","training_self",9,1,"GoldenRod","f","accept",1,472
"101","id0006",1,21,0,0,"human","training_self",7,3,"GoldenRod","f","accept",3,1104
"102","id0006",1,22,0,0,"AI","training_self",7,3,"DarkOrchid","f","accept",3,357
"103","id0006",1,23,0,0,"AI","training_self",9,1,"DarkOrchid","f","accept",1,678
"104","id0006",1,24,0,0,"AI","training_self",4,6,"DarkOrchid","f","accept",6,615
"105","id0007",0,1,1,0,"practice","Practice",6,4,"black","f","accept",4,723
"106","id0007",0,2,1,0,"practice","Practice",7,3,"black","j","reject",0,592
"107","id0007",1,1,0,1,"human","training_self",4,6,"DarkOrchid","f","accept",6,359
"108","id0007",1,2,0,0,"human","training_self",9,1,"DarkOrchid","j","reject",0,715
"109","id0007",1,3,0,0,"AI","training_self",4,6,"GoldenRod","f","accept",6,325
"110","id0007",1,4,0,0,"human","training_self",4,6,"DarkOrchid","f","accept",6,741
"111","id0007",1,5,0,0,"AI","training_self",8,2,"GoldenRod","f","accept",2,1515
"112","id0007",1,6,0,0,"AI","training_self",9,1,"GoldenRod","j","reject",0,357
"113","id0007",1,7,0,0,"human","training_self",9,1,"DarkOrchid","j","reject",0,571
"114","id0007",1,8,0,0,"AI","training_self",4,6,"GoldenRod","f","accept",6,345
"115","id0007",1,9,0,0,"AI","training_self",6,4,"GoldenRod","f","accept",4,456
"116","id0007",1,10,0,0,"AI","training_self",7,3,"GoldenRod","f","accept",3,502
"117","id0007",1,11,0,0,"AI","training_self",6,4,"GoldenRod","f","accept",4,522
"118","id0007",1,12,0,0,"AI","training_self",5,5,"GoldenRod","f","accept",5,636
"119","id0007",1,13,0,0,"human","training_self",5,5,"DarkOrchid","f","accept",5,378
"120","id0007",1,14,0,0,"human","training_self",7,3,"DarkOrchid","f","accept",3,514
"121","id0007",1,15,0,0,"human","training_self",8,2,"DarkOrchid","j","reject",0,498
"122","id0007",1,16,0,0,"AI","training_self",5,5,"GoldenRod","f","accept",5,371
"123","id0007",1,17,0,0,"human","training_self",7,3,"DarkOrchid","f","accept",3,499
"124","id0007",1,18,0,0,"human","training_self",8,2,"DarkOrchid","f","accept",2,802
"125","id0007",1,19,0,0,"human","training_self",5,5,"DarkOrchid","f","accept",5,1499
"126","id0007",1,20,0,0,"human","training_self",6,4,"DarkOrchid","f","accept",4,704
"127","id0007",1,21,0,0,"AI","training_self",5,5,"GoldenRod","f","accept",5,431
"128","id0007",1,22,0,0,"AI","training_self",5,5,"GoldenRod","f","accept",5,427
"129","id0007",1,23,0,0,"AI","training_self",6,4,"GoldenRod","f","accept",4,570
"130","id0007",1,24,0,0,"human","training_self",6,4,"DarkOrchid","f","accept",4,677
"131","id0008",0,1,1,0,"practice","Practice",4,6,"black","f","accept",6,939
"132","id0008",0,2,1,0,"practice","Practice",1,9,"black","f","accept",9,883
"133","id0008",1,1,0,0,"human","training_others",6,4,"DarkOrchid","f","accept",4,2365
"134","id0008",1,2,0,0,"AI","training_others",6,4,"GoldenRod","f","accept",4,494
"135","id0008",1,3,0,0,"human","training_others",9,1,"DarkOrchid","j","reject",0,641
"136","id0008",1,4,0,0,"AI","training_others",8,2,"GoldenRod","f","accept",2,1063
"137","id0008",1,5,0,0,"human","training_others",7,3,"DarkOrchid","f","accept",3,1449
"138","id0008",1,6,0,0,"AI","training_others",4,6,"GoldenRod","f","accept",6,1335
"139","id0008",1,7,0,0,"human","training_others",4,6,"DarkOrchid","f","accept",6,449
"140","id0008",1,8,0,0,"AI","training_others",9,1,"GoldenRod","j","reject",0,983
"141","id0008",1,9,0,1,"human","training_others",5,5,"DarkOrchid","f","accept",5,705
"142","id0008",1,10,0,0,"human","training_others",4,6,"DarkOrchid","f","accept",6,2790
"143","id0008",1,11,0,0,"AI","training_others",5,5,"GoldenRod","f","accept",5,2084
"144","id0008",1,12,0,0,"AI","training_others",7,3,"GoldenRod","f","accept",3,302
"145","id0008",1,13,0,0,"AI","training_others",5,5,"GoldenRod","f","accept",5,2255
"146","id0008",1,14,0,0,"human","training_others",6,4,"DarkOrchid","f","accept",4,94
"147","id0008",1,15,0,0,"human","training_others",5,5,"DarkOrchid","f","accept",5,589
"148","id0008",1,16,0,0,"human","training_others",8,2,"DarkOrchid","f","accept",2,382
"149","id0008",1,17,0,0,"AI","training_others",7,3,"GoldenRod","f","accept",3,435
"150","id0008",1,18,0,0,"human","training_others",8,2,"DarkOrchid","f","accept",2,1775
"151","id0008",1,19,0,0,"human","training_others",7,3,"DarkOrchid","f","accept",3,1326
"152","id0008",1,20,0,0,"AI","training_others",6,4,"GoldenRod","f","accept",4,577
"153","id0008",1,21,0,0,"AI","training_others",7,3,"GoldenRod","f","accept",3,849
"154","id0008",1,22,0,0,"AI","training_others",8,2,"GoldenRod","f","accept",2,3085
"155","id0008",1,23,0,0,"human","training_others",9,1,"DarkOrchid","j","reject",0,2216
"156","id0008",1,24,0,0,"AI","training_others",5,5,"GoldenRod","f","accept",5,546
"157","id0009",0,1,1,0,"practice","Practice",9,1,"black","f","accept",1,223
"158","id0009",0,2,1,0,"practice","Practice",7,3,"black","f","accept",3,528
"159","id0009",1,1,0,0,"human","training_others",7,3,"GoldenRod","f","accept",3,401
"160","id0009",1,2,0,0,"human","training_others",9,1,"GoldenRod","f","accept",1,397
"161","id0009",1,3,0,0,"human","training_others",8,2,"GoldenRod","f","accept",2,331
"162","id0009",1,4,0,0,"AI","training_others",7,3,"DarkOrchid","f","accept",3,309
"163","id0009",1,5,0,0,"AI","training_others",4,6,"DarkOrchid","f","accept",6,416
"164","id0009",1,6,0,0,"human","training_others",5,5,"GoldenRod","f","accept",5,475
"165","id0009",1,7,0,0,"AI","training_others",9,1,"DarkOrchid","f","accept",1,340
"166","id0009",1,8,0,0,"human","training_others",9,1,"GoldenRod","f","accept",1,392
"167","id0009",1,9,0,0,"AI","training_others",8,2,"DarkOrchid","f","accept",2,456
"168","id0009",1,10,0,0,"AI","training_others",5,5,"DarkOrchid","f","accept",5,484
"169","id0009",1,11,0,0,"human","training_others",8,2,"GoldenRod","f","accept",2,450
"170","id0009",1,12,0,0,"human","training_others",4,6,"GoldenRod","f","accept",6,603
"171","id0009",1,13,0,0,"human","training_others",4,6,"GoldenRod","f","accept",6,497
"172","id0009",1,14,0,0,"AI","training_others",7,3,"DarkOrchid","f","accept",3,284
"173","id0009",1,15,0,0,"human","training_others",6,4,"GoldenRod","f","accept",4,243
"174","id0009",1,16,0,0,"AI","training_others",7,3,"DarkOrchid","f","accept",3,314
"175","id0009",1,17,0,0,"AI","training_others",5,5,"DarkOrchid","f","accept",5,288
"176","id0009",1,18,0,1,"human","training_others",5,5,"GoldenRod","f","accept",5,321
"177","id0009",1,19,0,0,"human","training_others",7,3,"GoldenRod","f","accept",3,326
"178","id0009",1,20,0,0,"human","training_others",6,4,"GoldenRod","f","accept",4,377
"179","id0009",1,21,0,0,"AI","training_others",6,4,"DarkOrchid","f","accept",4,515
"180","id0009",1,22,0,0,"AI","training_others",6,4,"DarkOrchid","f","accept",4,255
"181","id0009",1,23,0,0,"AI","training_others",5,5,"DarkOrchid","f","accept",5,583
"182","id0009",1,24,0,0,"AI","training_others",6,4,"DarkOrchid","f","accept",4,439
"183","id0010",0,1,1,0,"practice","Practice",6,4,"black","f","accept",4,742
"184","id0010",0,2,1,0,"practice","Practice",5,5,"black","f","accept",5,566
"185","id0010",1,1,0,0,"AI","training_others",5,5,"GoldenRod","f","accept",5,700
"186","id0010",1,2,0,0,"human","training_others",6,4,"DarkOrchid","f","accept",4,704
"187","id0010",1,3,0,0,"AI","training_others",8,2,"GoldenRod","j","reject",0,606
"188","id0010",1,4,0,0,"AI","training_others",7,3,"GoldenRod","j","reject",0,726
"189","id0010",1,5,0,0,"AI","training_others",4,6,"GoldenRod","f","accept",6,589
"190","id0010",1,6,0,0,"human","training_others",8,2,"DarkOrchid","j","reject",0,715
"191","id0010",1,7,0,0,"human","training_others",9,1,"DarkOrchid","j","reject",0,738
"192","id0010",1,8,0,0,"AI","training_others",6,4,"GoldenRod","f","accept",4,603
"193","id0010",1,9,0,0,"AI","training_others",6,4,"GoldenRod","j","reject",0,806
"194","id0010",1,10,0,0,"AI","training_others",9,1,"GoldenRod","j","reject",0,1122
"195","id0010",1,11,0,0,"AI","training_others",5,5,"GoldenRod","f","accept",5,499
"196","id0010",1,12,0,0,"AI","training_others",5,5,"GoldenRod","f","accept",5,868
"197","id0010",1,13,0,0,"AI","training_others",5,5,"GoldenRod","f","accept",5,523
"198","id0010",1,14,0,0,"AI","training_others",5,5,"GoldenRod","f","accept",5,483
"199","id0010",1,15,0,0,"human","training_others",7,3,"DarkOrchid","j","reject",0,516
"200","id0010",1,16,0,0,"human","training_others",9,1,"DarkOrchid","j","reject",0,577
"201","id0010",1,17,0,0,"human","training_others",5,5,"DarkOrchid","f","accept",5,664
"202","id0010",1,18,0,1,"human","training_others",4,6,"DarkOrchid","f","accept",6,715
"203","id0010",1,19,0,0,"human","training_others",6,4,"DarkOrchid","f","accept",4,500
"204","id0010",1,20,0,0,"human","training_others",5,5,"DarkOrchid","f","accept",5,453
"205","id0010",1,21,0,0,"human","training_others",8,2,"DarkOrchid","j","reject",0,595
"206","id0010",1,22,0,0,"AI","training_others",5,5,"GoldenRod","f","accept",5,631
"207","id0010",1,23,0,0,"human","training_others",7,3,"DarkOrchid","j","reject",0,555
"208","id0010",1,24,0,0,"human","training_others",4,6,"DarkOrchid","f","accept",6,723
"209","id0011",0,1,1,0,"practice","Practice",1,9,"black","f","accept",9,748
"210","id0011",0,2,1,0,"practice","Practice",1,9,"black","f","accept",9,566
"211","id0011",1,1,0,0,"AI","training_self",5,5,"GoldenRod","f","accept",5,421
"212","id0011",1,2,0,0,"human","training_self",6,4,"DarkOrchid","f","accept",4,426
"213","id0011",1,3,0,0,"AI","training_self",6,4,"GoldenRod","f","accept",4,454
"214","id0011",1,4,0,0,"human","training_self",9,1,"DarkOrchid","j","reject",0,477
"215","id0011",1,5,0,0,"AI","training_self",8,2,"GoldenRod","j","reject",0,446
"216","id0011",1,6,0,0,"AI","training_self",4,6,"GoldenRod","f","accept",6,484
"217","id0011",1,7,0,0,"AI","training_self",7,3,"GoldenRod","f","accept",3,362
"218","id0011",1,8,0,0,"human","training_self",6,4,"DarkOrchid","f","accept",4,799
"219","id0011",1,9,0,0,"human","training_self",8,2,"DarkOrchid","j","reject",0,1163
"220","id0011",1,10,0,0,"human","training_self",8,2,"DarkOrchid","j","reject",0,460
"221","id0011",1,11,0,0,"human","training_self",5,5,"DarkOrchid","f","accept",5,388
"222","id0011",1,12,0,0,"AI","training_self",4,6,"GoldenRod","f","accept",6,386
"223","id0011",1,13,0,0,"human","training_self",9,1,"DarkOrchid","j","reject",0,403
"224","id0011",1,14,0,0,"AI","training_self",6,4,"GoldenRod","f","accept",4,350
"225","id0011",1,15,0,0,"human","training_self",7,3,"DarkOrchid","f","accept",3,530
"226","id0011",1,16,0,0,"human","training_self",7,3,"DarkOrchid","f","accept",3,391
"227","id0011",1,17,0,0,"AI","training_self",9,1,"GoldenRod","j","reject",0,328
"228","id0011",1,18,0,0,"AI","training_self",6,4,"GoldenRod","f","accept",4,224
"229","id0011",1,19,0,0,"AI","training_self",6,4,"GoldenRod","f","accept",4,319
"230","id0011",1,20,0,0,"human","training_self",5,5,"DarkOrchid","f","accept",5,318
"231","id0011",1,21,0,0,"human","training_self",4,6,"DarkOrchid","f","accept",6,286
"232","id0011",1,22,0,1,"human","training_self",4,6,"DarkOrchid","f","accept",6,349
"233","id0011",1,23,0,0,"AI","training_self",9,1,"GoldenRod","j","reject",0,337
"234","id0011",1,24,0,0,"AI","training_self",4,6,"GoldenRod","f","accept",6,358
"235","id0012",0,1,1,0,"practice","Practice",10,0,"black","j","reject",0,4356
"236","id0012",0,2,1,0,"practice","Practice",10,0,"black","j","reject",0,792
"237","id0012",1,1,0,0,"human","training_self",5,5,"GoldenRod","f","accept",5,348
"238","id0012",1,2,0,1,"human","training_self",4,6,"GoldenRod","f","accept",6,87
"239","id0012",1,3,0,0,"human","training_self",7,3,"GoldenRod","f","accept",3,1429
"240","id0012",1,4,0,0,"AI","training_self",8,2,"DarkOrchid","f","accept",2,155
"241","id0012",1,5,0,0,"AI","training_self",7,3,"DarkOrchid","f","accept",3,496
"242","id0012",1,6,0,0,"AI","training_self",6,4,"DarkOrchid","f","accept",4,530
"243","id0012",1,7,0,0,"human","training_self",5,5,"GoldenRod","f","accept",5,743
"244","id0012",1,8,0,0,"human","training_self",8,2,"GoldenRod","f","accept",2,2772
"245","id0012",1,9,0,0,"AI","training_self",5,5,"DarkOrchid","f","accept",5,678
"246","id0012",1,10,0,0,"human","training_self",8,2,"GoldenRod","f","accept",2,534
"247","id0012",1,11,0,0,"AI","training_self",9,1,"DarkOrchid","j","reject",0,1937
"248","id0012",1,12,0,0,"human","training_self",9,1,"GoldenRod","j","reject",0,994
"249","id0012",1,13,0,0,"AI","training_self",4,6,"DarkOrchid","f","accept",6,629
"250","id0012",1,14,0,0,"human","training_self",6,4,"GoldenRod","f","accept",4,628
"251","id0012",1,15,0,0,"AI","training_self",7,3,"DarkOrchid","f","accept",3,450
"252","id0012",1,16,0,0,"AI","training_self",5,5,"DarkOrchid","f","accept",5,726
"253","id0012",1,17,0,0,"human","training_self",6,4,"GoldenRod","f","accept",4,612
"254","id0012",1,18,0,0,"human","training_self",4,6,"GoldenRod","f","accept",6,629
"255","id0012",1,19,0,0,"AI","training_self",4,6,"DarkOrchid","f","accept",6,676
"256","id0012",1,20,0,0,"human","training_self",9,1,"GoldenRod","j","reject",0,581
"257","id0012",1,21,0,0,"AI","training_self",6,4,"DarkOrchid","f","accept",4,667
"258","id0012",1,22,0,0,"human","training_self",7,3,"GoldenRod","f","accept",3,620
"259","id0012",1,23,0,0,"AI","training_self",4,6,"DarkOrchid","f","accept",6,1254
"260","id0012",1,24,0,0,"AI","training_self",5,5,"DarkOrchid","f","accept",5,730
"261","id0013",0,1,1,0,"practice","Practice",9,1,"black","j","reject",0,2122
"262","id0013",0,2,1,0,"practice","Practice",9,1,"black","j","reject",0,592
"263","id0013",1,1,0,0,"AI","training_self",5,5,"GoldenRod","f","accept",5,446
"264","id0013",1,2,0,0,"AI","training_self",4,6,"GoldenRod","f","accept",6,460
"265","id0013",1,3,0,0,"human","training_self",9,1,"DarkOrchid","j","reject",0,486
"266","id0013",1,4,0,0,"AI","training_self",9,1,"GoldenRod","j","reject",0,523
"267","id0013",1,5,0,0,"human","training_self",5,5,"DarkOrchid","f","accept",5,392
"268","id0013",1,6,0,0,"human","training_self",6,4,"DarkOrchid","f","accept",4,412
"269","id0013",1,7,0,0,"AI","training_self",6,4,"GoldenRod","f","accept",4,652
"270","id0013",1,8,0,0,"human","training_self",4,6,"DarkOrchid","f","accept",6,436
"271","id0013",1,9,0,0,"AI","training_self",4,6,"GoldenRod","f","accept",6,437
"272","id0013",1,10,0,0,"AI","training_self",7,3,"GoldenRod","f","accept",3,555
"273","id0013",1,11,0,0,"human","training_self",9,1,"DarkOrchid","j","reject",0,698
"274","id0013",1,12,0,0,"AI","training_self",5,5,"GoldenRod","f","accept",5,638
"275","id0013",1,13,0,0,"AI","training_self",4,6,"GoldenRod","f","accept",6,435
"276","id0013",1,14,0,0,"human","training_self",6,4,"DarkOrchid","f","accept",4,388
"277","id0013",1,15,0,0,"human","training_self",4,6,"DarkOrchid","f","accept",6,368
"278","id0013",1,16,0,0,"AI","training_self",8,2,"GoldenRod","j","reject",0,554
"279","id0013",1,17,0,0,"human","training_self",7,3,"DarkOrchid","f","accept",3,504
"280","id0013",1,18,0,0,"human","training_self",8,2,"DarkOrchid","j","reject",0,582
"281","id0013",1,19,0,1,"human","training_self",8,2,"DarkOrchid","j","reject",0,1887
"282","id0013",1,20,0,0,"AI","training_self",4,6,"GoldenRod","f","accept",6,387
"283","id0013",1,21,0,0,"human","training_self",7,3,"DarkOrchid","f","accept",3,594
"284","id0013",1,22,0,0,"AI","training_self",8,2,"GoldenRod","j","reject",0,417
"285","id0013",1,23,0,0,"human","training_self",5,5,"DarkOrchid","f","accept",5,550
"286","id0013",1,24,0,0,"AI","training_self",7,3,"GoldenRod","f","accept",3,535
"287","id0014",0,1,1,0,"practice","Practice",5,5,"black","f","accept",5,1893
"288","id0014",0,2,1,0,"practice","Practice",10,0,"black","j","reject",0,292
"289","id0014",1,1,0,0,"AI","training_others",4,6,"DarkOrchid","f","accept",6,708
"290","id0014",1,2,0,0,"human","training_others",8,2,"GoldenRod","f","accept",2,1291
"291","id0014",1,3,0,0,"human","training_others",6,4,"GoldenRod","f","accept",4,964
"292","id0014",1,4,0,0,"human","training_others",9,1,"GoldenRod","f","accept",1,735
"293","id0014",1,5,0,0,"AI","training_others",7,3,"DarkOrchid","f","accept",3,788
"294","id0014",1,6,0,0,"AI","training_others",6,4,"DarkOrchid","f","accept",4,596
"295","id0014",1,7,0,0,"AI","training_others",9,1,"DarkOrchid","f","accept",1,1418
"296","id0014",1,8,0,0,"human","training_others",6,4,"GoldenRod","f","accept",4,738
"297","id0014",1,9,0,0,"AI","training_others",6,4,"DarkOrchid","f","accept",4,756
"298","id0014",1,10,0,0,"human","training_others",4,6,"GoldenRod","f","accept",6,510
"299","id0014",1,11,0,1,"human","training_others",5,5,"GoldenRod","f","accept",5,586
"300","id0014",1,12,0,0,"AI","training_others",8,2,"DarkOrchid","f","accept",2,909
"301","id0014",1,13,0,0,"human","training_others",7,3,"GoldenRod","f","accept",3,1525
"302","id0014",1,14,0,0,"AI","training_others",5,5,"DarkOrchid","f","accept",5,925
"303","id0014",1,15,0,0,"AI","training_others",9,1,"DarkOrchid","f","accept",1,1536
"304","id0014",1,16,0,0,"AI","training_others",5,5,"DarkOrchid","f","accept",5,1143
"305","id0014",1,17,0,0,"human","training_others",4,6,"GoldenRod","f","accept",6,1157
"306","id0014",1,18,0,0,"AI","training_others",8,2,"DarkOrchid","f","accept",2,482
"307","id0014",1,19,0,0,"AI","training_others",5,5,"DarkOrchid","f","accept",5,868
"308","id0014",1,20,0,0,"human","training_others",9,1,"GoldenRod","f","accept",1,852
"309","id0014",1,21,0,0,"human","training_others",8,2,"GoldenRod","f","accept",2,485
"310","id0014",1,22,0,0,"human","training_others",5,5,"GoldenRod","f","accept",5,908
"311","id0014",1,23,0,0,"AI","training_others",5,5,"DarkOrchid","f","accept",5,404
"312","id0014",1,24,0,0,"human","training_others",7,3,"GoldenRod","f","accept",3,794
"313","id0015",0,1,1,0,"practice","Practice",9,1,"black","j","reject",0,1238
"314","id0015",0,2,1,0,"practice","Practice",10,0,"black","j","reject",0,406
"315","id0015",1,1,0,0,"human","control",6,4,"GoldenRod","f","accept",4,256
"316","id0015",1,2,0,0,"AI","control",4,6,"DarkOrchid","f","accept",6,388
"317","id0015",1,3,0,0,"AI","control",6,4,"DarkOrchid","f","accept",4,274
"318","id0015",1,4,0,0,"human","control",6,4,"GoldenRod","f","accept",4,267
"319","id0015",1,5,0,0,"AI","control",6,4,"DarkOrchid","f","accept",4,273
"320","id0015",1,6,0,0,"human","control",8,2,"GoldenRod","j","reject",0,140
"321","id0015",1,7,0,0,"human","control",8,2,"GoldenRod","j","reject",0,344
"322","id0015",1,8,0,0,"AI","control",7,3,"DarkOrchid","f","accept",3,909
"323","id0015",1,9,0,0,"AI","control",8,2,"DarkOrchid","j","reject",0,311
"324","id0015",1,10,0,0,"human","control",5,5,"GoldenRod","f","accept",5,299
"325","id0015",1,11,0,1,"human","control",5,5,"GoldenRod","f","accept",5,444
"326","id0015",1,12,0,0,"AI","control",5,5,"DarkOrchid","f","accept",5,361
"327","id0015",1,13,0,0,"AI","control",6,4,"DarkOrchid","f","accept",4,189
"328","id0015",1,14,0,0,"human","control",4,6,"GoldenRod","f","accept",6,727
"329","id0015",1,15,0,0,"human","control",4,6,"GoldenRod","f","accept",6,1300
"330","id0015",1,16,0,0,"AI","control",9,1,"DarkOrchid","f","accept",1,1139
"331","id0015",1,17,0,0,"human","control",7,3,"GoldenRod","f","accept",3,317
"332","id0015",1,18,0,0,"AI","control",4,6,"DarkOrchid","f","accept",6,7920
"333","id0015",1,19,0,0,"AI","control",7,3,"DarkOrchid","f","accept",3,2183
"334","id0015",1,20,0,0,"human","control",9,1,"GoldenRod","j","reject",0,2811
"335","id0015",1,21,0,0,"human","control",7,3,"GoldenRod","f","accept",3,2438
"336","id0015",1,22,0,0,"AI","control",4,6,"DarkOrchid","f","accept",6,3141
"337","id0015",1,23,0,0,"human","control",9,1,"GoldenRod","j","reject",0,282
"338","id0015",1,24,0,0,"AI","control",6,4,"DarkOrchid","f","accept",4,3374
"339","id0016",0,1,1,0,"practice","Practice",9,1,"black","j","reject",0,541
"340","id0016",0,2,1,0,"practice","Practice",10,0,"black","j","reject",0,533
"341","id0016",1,1,0,0,"AI","training_others",7,3,"DarkOrchid","f","accept",3,530
"342","id0016",1,2,0,0,"AI","training_others",5,5,"DarkOrchid","f","accept",5,304
"343","id0016",1,3,0,0,"AI","training_others",8,2,"DarkOrchid","f","accept",2,424
"344","id0016",1,4,0,0,"human","training_others",6,4,"GoldenRod","j","reject",0,410
"345","id0016",1,5,0,0,"AI","training_others",8,2,"DarkOrchid","f","accept",2,309
"346","id0016",1,6,0,0,"human","training_others",4,6,"GoldenRod","f","accept",6,405
"347","id0016",1,7,0,0,"human","training_others",8,2,"GoldenRod","j","reject",0,291
"348","id0016",1,8,0,0,"human","training_others",8,2,"GoldenRod","j","reject",0,383
"349","id0016",1,9,0,0,"human","training_others",9,1,"GoldenRod","j","reject",0,316
"350","id0016",1,10,0,0,"human","training_others",5,5,"GoldenRod","f","accept",5,289
"351","id0016",1,11,0,0,"human","training_others",4,6,"GoldenRod","f","accept",6,502
"352","id0016",1,12,0,0,"AI","training_others",6,4,"DarkOrchid","f","accept",4,265
"353","id0016",1,13,0,0,"human","training_others",6,4,"GoldenRod","j","reject",0,297
"354","id0016",1,14,0,0,"human","training_others",5,5,"GoldenRod","f","accept",5,344
"355","id0016",1,15,0,0,"AI","training_others",4,6,"DarkOrchid","f","accept",6,269
"356","id0016",1,16,0,0,"human","training_others",7,3,"GoldenRod","j","reject",0,294
"357","id0016",1,17,0,0,"human","training_others",7,3,"GoldenRod","j","reject",0,400
"358","id0016",1,18,0,1,"AI","training_others",9,1,"DarkOrchid","f","accept",1,1901
"359","id0016",1,19,0,0,"human","training_others",9,1,"GoldenRod","j","reject",0,416
"360","id0016",1,20,0,0,"AI","training_others",6,4,"DarkOrchid","f","accept",4,3136
"361","id0016",1,21,0,0,"AI","training_others",6,4,"DarkOrchid","f","accept",4,3301
"362","id0016",1,22,0,0,"AI","training_others",6,4,"DarkOrchid","f","accept",4,305
"363","id0016",1,23,0,0,"AI","training_others",5,5,"DarkOrchid","f","accept",5,261
"364","id0016",1,24,0,0,"AI","training_others",4,6,"DarkOrchid","f","accept",6,490
"365","id0017",0,1,1,0,"practice","Practice",5,5,"black","f","accept",5,302
"366","id0017",0,2,1,0,"practice","Practice",2,8,"black","f","accept",8,618
"367","id0017",1,1,0,0,"AI","training_others",5,5,"GoldenRod","f","accept",5,280
"368","id0017",1,2,0,0,"human","training_others",7,3,"DarkOrchid","f","accept",3,304
"369","id0017",1,3,0,0,"human","training_others",6,4,"DarkOrchid","f","accept",4,314
"370","id0017",1,4,0,0,"AI","training_others",4,6,"GoldenRod","f","accept",6,242
"371","id0017",1,5,0,0,"AI","training_others",8,2,"GoldenRod","f","accept",2,257
"372","id0017",1,6,0,0,"AI","training_others",9,1,"GoldenRod","f","accept",1,271
"373","id0017",1,7,0,0,"AI","training_others",7,3,"GoldenRod","f","accept",3,288
"374","id0017",1,8,0,0,"AI","training_others",9,1,"GoldenRod","f","accept",1,288
"375","id0017",1,9,0,0,"human","training_others",6,4,"DarkOrchid","f","accept",4,333
"376","id0017",1,10,0,0,"AI","training_others",9,1,"GoldenRod","f","accept",1,288
"377","id0017",1,11,0,0,"human","training_others",8,2,"DarkOrchid","f","accept",2,265
"378","id0017",1,12,0,0,"AI","training_others",6,4,"GoldenRod","f","accept",4,296
"379","id0017",1,13,0,0,"human","training_others",9,1,"DarkOrchid","f","accept",1,284
"380","id0017",1,14,0,0,"human","training_others",4,6,"DarkOrchid","f","accept",6,368
"381","id0017",1,15,0,0,"AI","training_others",5,5,"GoldenRod","f","accept",5,294
"382","id0017",1,16,0,1,"AI","training_others",4,6,"GoldenRod","f","accept",6,314
"383","id0017",1,17,0,0,"human","training_others",7,3,"DarkOrchid","f","accept",3,303
"384","id0017",1,18,0,0,"human","training_others",5,5,"DarkOrchid","f","accept",5,306
"385","id0017",1,19,0,0,"human","training_others",8,2,"DarkOrchid","f","accept",2,342
"386","id0017",1,20,0,0,"AI","training_others",5,5,"GoldenRod","f","accept",5,285
"387","id0017",1,21,0,0,"AI","training_others",6,4,"GoldenRod","f","accept",4,274
"388","id0017",1,22,0,0,"human","training_others",4,6,"DarkOrchid","f","accept",6,271
"389","id0017",1,23,0,0,"human","training_others",9,1,"DarkOrchid","f","accept",1,310
"390","id0017",1,24,0,0,"human","training_others",5,5,"DarkOrchid","f","accept",5,283
"391","id0019",0,1,1,0,"practice","Practice",8,2,"black","f","accept",2,835
"392","id0019",0,2,1,0,"practice","Practice",7,3,"black","f","accept",3,388
"393","id0019",1,1,0,0,"AI","training_others",6,4,"GoldenRod","f","accept",4,671
"394","id0019",1,2,0,0,"AI","training_others",6,4,"GoldenRod","f","accept",4,623
"395","id0019",1,3,0,0,"AI","training_others",8,2,"GoldenRod","f","accept",2,690
"396","id0019",1,4,0,0,"AI","training_others",9,1,"GoldenRod","f","accept",1,514
"397","id0019",1,5,0,1,"human","training_others",5,5,"DarkOrchid","f","accept",5,395
"398","id0019",1,6,0,0,"human","training_others",9,1,"DarkOrchid","f","accept",1,706
"399","id0019",1,7,0,0,"human","training_others",8,2,"DarkOrchid","f","accept",2,495
"400","id0019",1,8,0,0,"AI","training_others",7,3,"GoldenRod","f","accept",3,458
"401","id0019",1,9,0,0,"human","training_others",4,6,"DarkOrchid","f","accept",6,457
"402","id0019",1,10,0,0,"AI","training_others",5,5,"GoldenRod","f","accept",5,446
"403","id0019",1,11,0,0,"AI","training_others",4,6,"GoldenRod","f","accept",6,449
"404","id0019",1,12,0,0,"human","training_others",4,6,"DarkOrchid","f","accept",6,501
"405","id0019",1,13,0,0,"AI","training_others",6,4,"GoldenRod","f","accept",4,379
"406","id0019",1,14,0,0,"AI","training_others",7,3,"GoldenRod","f","accept",3,433
"407","id0019",1,15,0,0,"human","training_others",6,4,"DarkOrchid","f","accept",4,465
"408","id0019",1,16,0,0,"AI","training_others",5,5,"GoldenRod","f","accept",5,455
"409","id0019",1,17,0,0,"human","training_others",5,5,"DarkOrchid","f","accept",5,402
"410","id0019",1,18,0,0,"human","training_others",6,4,"DarkOrchid","f","accept",4,445
"411","id0019",1,19,0,0,"human","training_others",9,1,"DarkOrchid","f","accept",1,382
"412","id0019",1,20,0,0,"AI","training_others",4,6,"GoldenRod","f","accept",6,578
"413","id0019",1,21,0,0,"human","training_others",7,3,"DarkOrchid","f","accept",3,541
"414","id0019",1,22,0,0,"human","training_others",7,3,"DarkOrchid","f","accept",3,385
"415","id0019",1,23,0,0,"AI","training_others",6,4,"GoldenRod","f","accept",4,409
"416","id0019",1,24,0,0,"human","training_others",8,2,"DarkOrchid","f","accept",2,531
"417","id0020",0,1,1,0,"practice","Practice",5,5,"black","f","accept",5,4126
"418","id0020",0,2,1,0,"practice","Practice",1,9,"black","j","reject",0,2738
"419","id0020",1,1,0,0,"AI","training_others",7,3,"DarkOrchid","j","reject",0,2700
"420","id0020",1,2,0,0,"human","training_others",7,3,"GoldenRod","f","accept",3,977
"421","id0020",1,3,0,0,"human","training_others",8,2,"GoldenRod","f","accept",2,275
"422","id0020",1,4,0,0,"AI","training_others",4,6,"DarkOrchid","f","accept",6,8844
"423","id0020",1,5,0,0,"AI","training_others",5,5,"DarkOrchid","f","accept",5,101
"424","id0020",1,6,0,0,"AI","training_others",6,4,"DarkOrchid","f","accept",4,103
"425","id0020",1,7,0,0,"human","training_others",9,1,"GoldenRod","f","accept",1,983
"426","id0020",1,8,0,0,"human","training_others",4,6,"GoldenRod","f","accept",6,2210
"427","id0020",1,9,0,0,"human","training_others",5,5,"GoldenRod","f","accept",5,457
"428","id0020",1,10,0,0,"human","training_others",4,6,"GoldenRod","f","accept",6,1170
"429","id0020",1,11,0,0,"human","training_others",7,3,"GoldenRod","f","accept",3,686
"430","id0020",1,12,0,0,"AI","training_others",5,5,"DarkOrchid","f","accept",5,743
"431","id0020",1,13,0,0,"AI","training_others",5,5,"DarkOrchid","f","accept",5,936
"432","id0020",1,14,0,0,"human","training_others",6,4,"GoldenRod","f","accept",4,1518
"433","id0020",1,15,0,0,"AI","training_others",7,3,"DarkOrchid","j","reject",0,890
"434","id0020",1,16,0,1,"human","training_others",9,1,"GoldenRod","f","accept",1,554
"435","id0020",1,17,0,0,"human","training_others",5,5,"GoldenRod","f","accept",5,145
"436","id0020",1,18,0,0,"AI","training_others",9,1,"DarkOrchid","j","reject",0,1068
"437","id0020",1,19,0,0,"AI","training_others",4,6,"DarkOrchid","f","accept",6,966
"438","id0020",1,20,0,0,"human","training_others",8,2,"GoldenRod","j","reject",0,927
"439","id0020",1,21,0,0,"AI","training_others",8,2,"DarkOrchid","j","reject",0,575
"440","id0020",1,22,0,0,"AI","training_others",5,5,"DarkOrchid","f","accept",5,2832
"441","id0020",1,23,0,0,"human","training_others",6,4,"GoldenRod","f","accept",4,767
"442","id0020",1,24,0,0,"AI","training_others",8,2,"DarkOrchid","j","reject",0,562
"443","id0023",0,1,1,0,"practice","Practice",8,2,"black","f","accept",2,1682
"444","id0023",0,2,1,0,"practice","Practice",5,5,"black","f","accept",5,298
"445","id0023",1,1,0,0,"AI","training_self",9,1,"DarkOrchid","f","accept",1,945
"446","id0023",1,2,0,0,"AI","training_self",6,4,"DarkOrchid","f","accept",4,426
"447","id0023",1,3,0,0,"AI","training_self",4,6,"DarkOrchid","f","accept",6,305
"448","id0023",1,4,0,0,"AI","training_self",5,5,"DarkOrchid","f","accept",5,320
"449","id0023",1,5,0,0,"human","training_self",5,5,"GoldenRod","f","accept",5,381
"450","id0023",1,6,0,0,"human","training_self",6,4,"GoldenRod","f","accept",4,290
"451","id0023",1,7,0,0,"human","training_self",4,6,"GoldenRod","f","accept",6,1120
"452","id0023",1,8,0,0,"AI","training_self",7,3,"DarkOrchid","j","reject",0,2037
"453","id0023",1,9,0,0,"human","training_self",8,2,"GoldenRod","f","accept",2,737
"454","id0023",1,10,0,1,"AI","training_self",8,2,"DarkOrchid","j","reject",0,322
"455","id0023",1,11,0,0,"human","training_self",9,1,"GoldenRod","f","accept",1,489
"456","id0023",1,12,0,0,"AI","training_self",5,5,"DarkOrchid","f","accept",5,327
"457","id0023",1,13,0,0,"human","training_self",7,3,"GoldenRod","f","accept",3,466
"458","id0023",1,14,0,0,"human","training_self",6,4,"GoldenRod","f","accept",4,293
"459","id0023",1,15,0,0,"AI","training_self",5,5,"DarkOrchid","f","accept",5,278
"460","id0023",1,16,0,0,"human","training_self",8,2,"GoldenRod","f","accept",2,281
"461","id0023",1,17,0,0,"human","training_self",7,3,"GoldenRod","f","accept",3,423
"462","id0023",1,18,0,0,"AI","training_self",4,6,"DarkOrchid","f","accept",6,292
"463","id0023",1,19,0,0,"human","training_self",9,1,"GoldenRod","f","accept",1,298
"464","id0023",1,20,0,0,"human","training_self",5,5,"GoldenRod","f","accept",5,205
"465","id0023",1,21,0,0,"AI","training_self",4,6,"DarkOrchid","f","accept",6,276
"466","id0023",1,22,0,0,"human","training_self",4,6,"GoldenRod","f","accept",6,262
"467","id0023",1,23,0,0,"AI","training_self",6,4,"DarkOrchid","f","accept",4,305
"468","id0023",1,24,0,0,"AI","training_self",7,3,"DarkOrchid","f","accept",3,309
"469","id0024",0,1,1,0,"practice","Practice",2,8,"black","f","accept",8,912
"470","id0024",0,2,1,0,"practice","Practice",9,1,"black","j","reject",0,431
"471","id0024",1,1,0,0,"human","control",5,5,"DarkOrchid","f","accept",5,742
"472","id0024",1,2,0,0,"AI","control",5,5,"GoldenRod","f","accept",5,783
"473","id0024",1,3,0,0,"AI","control",6,4,"GoldenRod","f","accept",4,876
"474","id0024",1,4,0,0,"AI","control",9,1,"GoldenRod","j","reject",0,300
"475","id0024",1,5,0,0,"AI","control",7,3,"GoldenRod","j","reject",0,723
"476","id0024",1,6,0,0,"human","control",7,3,"DarkOrchid","j","reject",0,455
"477","id0024",1,7,0,0,"human","control",6,4,"DarkOrchid","f","accept",4,102
"478","id0024",1,8,0,0,"human","control",9,1,"DarkOrchid","j","reject",0,621
"479","id0024",1,9,0,0,"human","control",8,2,"DarkOrchid","j","reject",0,417
"480","id0024",1,10,0,0,"human","control",7,3,"DarkOrchid","j","reject",0,313
"481","id0024",1,11,0,0,"human","control",5,5,"DarkOrchid","f","accept",5,442
"482","id0024",1,12,0,0,"AI","control",4,6,"GoldenRod","f","accept",6,573
"483","id0024",1,13,0,0,"AI","control",4,6,"GoldenRod","f","accept",6,557
"484","id0024",1,14,0,0,"human","control",4,6,"DarkOrchid","f","accept",6,465
"485","id0024",1,15,0,0,"AI","control",8,2,"GoldenRod","j","reject",0,2344
"486","id0024",1,16,0,0,"AI","control",8,2,"GoldenRod","j","reject",0,630
"487","id0024",1,17,0,0,"AI","control",6,4,"GoldenRod","f","accept",4,757
"488","id0024",1,18,0,0,"AI","control",8,2,"GoldenRod","j","reject",0,1334
"489","id0024",1,19,0,0,"human","control",4,6,"DarkOrchid","f","accept",6,439
"490","id0024",1,20,0,0,"human","control",9,1,"DarkOrchid","j","reject",0,755
"491","id0024",1,21,0,0,"AI","control",6,4,"GoldenRod","f","accept",4,643
"492","id0024",1,22,0,0,"human","control",6,4,"DarkOrchid","f","accept",4,748
"493","id0024",1,23,0,0,"AI","control",4,6,"GoldenRod","f","accept",6,1219
"494","id0024",1,24,0,1,"human","control",8,2,"DarkOrchid","j","reject",0,1257
"495","id0025",0,1,1,0,"practice","Practice",10,0,"black","j","reject",0,2289
"496","id0025",0,2,1,0,"practice","Practice",7,3,"black","f","accept",3,3594
"497","id0025",1,1,0,0,"AI","training_self",6,4,"GoldenRod","f","accept",4,1922
"498","id0025",1,2,0,0,"AI","training_self",4,6,"GoldenRod","f","accept",6,869
"499","id0025",1,3,0,0,"AI","training_self",5,5,"GoldenRod","f","accept",5,2978
"500","id0025",1,4,0,0,"human","training_self",7,3,"DarkOrchid","j","reject",0,2593
"501","id0025",1,5,0,0,"human","training_self",9,1,"DarkOrchid","j","reject",0,739
"502","id0025",1,6,0,0,"human","training_self",4,6,"DarkOrchid","f","accept",6,1293
"503","id0025",1,7,0,0,"human","training_self",9,1,"DarkOrchid","j","reject",0,148
"504","id0025",1,8,0,0,"AI","training_self",7,3,"GoldenRod","j","reject",0,468
"505","id0025",1,9,0,0,"human","training_self",7,3,"DarkOrchid","j","reject",0,335
"506","id0025",1,10,0,0,"AI","training_self",8,2,"GoldenRod","j","reject",0,831
"507","id0025",1,11,0,0,"human","training_self",8,2,"DarkOrchid","j","reject",0,527
"508","id0025",1,12,0,0,"human","training_self",5,5,"DarkOrchid","f","accept",5,770
"509","id0025",1,13,0,0,"AI","training_self",9,1,"GoldenRod","j","reject",0,705
"510","id0025",1,14,0,1,"AI","training_self",7,3,"GoldenRod","j","reject",0,1470
"511","id0025",1,15,0,0,"AI","training_self",5,5,"GoldenRod","f","accept",5,590
"512","id0025",1,16,0,0,"AI","training_self",4,6,"GoldenRod","f","accept",6,832
"513","id0025",1,17,0,0,"human","training_self",6,4,"DarkOrchid","f","accept",4,748
"514","id0025",1,18,0,0,"AI","training_self",6,4,"GoldenRod","f","accept",4,561
"515","id0025",1,19,0,0,"human","training_self",5,5,"DarkOrchid","f","accept",5,537
"516","id0025",1,20,0,0,"human","training_self",4,6,"DarkOrchid","f","accept",6,960
"517","id0025",1,21,0,0,"AI","training_self",5,5,"GoldenRod","f","accept",5,696
"518","id0025",1,22,0,0,"AI","training_self",5,5,"GoldenRod","f","accept",5,777
"519","id0025",1,23,0,0,"human","training_self",8,2,"DarkOrchid","j","reject",0,1513
"520","id0025",1,24,0,0,"human","training_self",6,4,"DarkOrchid","f","accept",4,647
"521","id0026",0,1,1,0,"practice","Practice",3,7,"black","j","reject",0,1787
"522","id0026",0,2,1,0,"practice","Practice",1,9,"black","f","accept",9,334
"523","id0026",1,1,0,0,"AI","control",9,1,"GoldenRod","j","reject",0,757
"524","id0026",1,2,0,0,"human","control",6,4,"DarkOrchid","f","accept",4,459
"525","id0026",1,3,0,0,"AI","control",8,2,"GoldenRod","j","reject",0,420
"526","id0026",1,4,0,0,"AI","control",5,5,"GoldenRod","f","accept",5,318
"527","id0026",1,5,0,0,"AI","control",8,2,"GoldenRod","j","reject",0,324
"528","id0026",1,6,0,0,"AI","control",4,6,"GoldenRod","f","accept",6,303
"529","id0026",1,7,0,0,"human","control",6,4,"DarkOrchid","f","accept",4,642
"530","id0026",1,8,0,0,"human","control",4,6,"DarkOrchid","f","accept",6,313
"531","id0026",1,9,0,0,"human","control",9,1,"DarkOrchid","j","reject",0,380
"532","id0026",1,10,0,0,"human","control",9,1,"DarkOrchid","j","reject",0,382
"533","id0026",1,11,0,0,"human","control",5,5,"DarkOrchid","f","accept",5,292
"534","id0026",1,12,0,0,"human","control",4,6,"DarkOrchid","f","accept",6,404
"535","id0026",1,13,0,0,"AI","control",6,4,"GoldenRod","f","accept",4,62
"536","id0026",1,14,0,0,"human","control",7,3,"DarkOrchid","j","reject",0,398
"537","id0026",1,15,0,0,"human","control",8,2,"DarkOrchid","j","reject",0,424
"538","id0026",1,16,0,0,"AI","control",6,4,"GoldenRod","f","accept",4,313
"539","id0026",1,17,0,0,"AI","control",7,3,"GoldenRod","j","reject",0,279
"540","id0026",1,18,0,0,"human","control",7,3,"DarkOrchid","j","reject",0,278
"541","id0026",1,19,0,0,"AI","control",5,5,"GoldenRod","f","accept",5,383
"542","id0026",1,20,0,0,"AI","control",5,5,"GoldenRod","f","accept",5,333
"543","id0026",1,21,0,0,"AI","control",5,5,"GoldenRod","f","accept",5,301
"544","id0026",1,22,0,0,"human","control",5,5,"DarkOrchid","f","accept",5,419
"545","id0026",1,23,0,1,"human","control",8,2,"DarkOrchid","j","reject",0,311
"546","id0026",1,24,0,0,"AI","control",4,6,"GoldenRod","f","accept",6,387
"547","id0029",0,1,1,0,"practice","Practice",1,9,"black","j","reject",0,1427
"548","id0029",0,2,1,0,"practice","Practice",2,8,"black","j","reject",0,1289
"549","id0029",1,1,0,0,"human","training_self",6,4,"DarkOrchid","f","accept",4,2572
"550","id0029",1,2,0,0,"AI","training_self",8,2,"GoldenRod","j","reject",0,631
"551","id0029",1,3,0,1,"human","training_self",9,1,"DarkOrchid","j","reject",0,1257
"552","id0029",1,4,0,0,"human","training_self",7,3,"DarkOrchid","j","reject",0,1023
"553","id0029",1,5,0,0,"AI","training_self",6,4,"GoldenRod","f","accept",4,1309
"554","id0029",1,6,0,0,"human","training_self",4,6,"DarkOrchid","f","accept",6,2868
"555","id0029",1,7,0,0,"human","training_self",5,5,"DarkOrchid","f","accept",5,1084
"556","id0029",1,8,0,0,"AI","training_self",4,6,"GoldenRod","f","accept",6,933
"557","id0029",1,9,0,0,"AI","training_self",7,3,"GoldenRod","j","reject",0,916
"558","id0029",1,10,0,0,"human","training_self",8,2,"DarkOrchid","j","reject",0,582
"559","id0029",1,11,0,0,"AI","training_self",5,5,"GoldenRod","f","accept",5,759
"560","id0029",1,12,0,0,"AI","training_self",5,5,"GoldenRod","f","accept",5,451
"561","id0029",1,13,0,0,"human","training_self",9,1,"DarkOrchid","j","reject",0,383
"562","id0029",1,14,0,0,"human","training_self",7,3,"DarkOrchid","j","reject",0,384
"563","id0029",1,15,0,0,"AI","training_self",9,1,"GoldenRod","j","reject",0,374
"564","id0029",1,16,0,0,"AI","training_self",4,6,"GoldenRod","f","accept",6,1995
"565","id0029",1,17,0,0,"AI","training_self",5,5,"GoldenRod","f","accept",5,328
"566","id0029",1,18,0,0,"AI","training_self",4,6,"GoldenRod","f","accept",6,564
"567","id0029",1,19,0,0,"human","training_self",5,5,"DarkOrchid","f","accept",5,454
"568","id0029",1,20,0,0,"AI","training_self",4,6,"GoldenRod","f","accept",6,377
"569","id0029",1,21,0,0,"AI","training_self",4,6,"GoldenRod","f","accept",6,540
"570","id0029",1,22,0,0,"human","training_self",4,6,"DarkOrchid","f","accept",6,531
"571","id0029",1,23,0,0,"human","training_self",6,4,"DarkOrchid","f","accept",4,349
"572","id0029",1,24,0,0,"human","training_self",8,2,"DarkOrchid","j","reject",0,743
"573","id0030",0,1,1,0,"practice","Practice",4,6,"black","f","accept",6,1134
"574","id0030",0,2,1,0,"practice","Practice",8,2,"black","j","reject",0,392
"575","id0030",1,1,0,0,"human","training_self",5,5,"DarkOrchid","f","accept",5,439
"576","id0030",1,2,0,0,"human","training_self",6,4,"DarkOrchid","f","accept",4,244
"577","id0030",1,3,0,0,"AI","training_self",4,6,"GoldenRod","f","accept",6,300
"578","id0030",1,4,0,0,"AI","training_self",7,3,"GoldenRod","j","reject",0,311
"579","id0030",1,5,0,0,"AI","training_self",5,5,"GoldenRod","f","accept",5,177
"580","id0030",1,6,0,0,"human","training_self",7,3,"DarkOrchid","j","reject",0,49
"581","id0030",1,7,0,0,"AI","training_self",8,2,"GoldenRod","j","reject",0,1321
"582","id0030",1,8,0,0,"human","training_self",9,1,"DarkOrchid","j","reject",0,344
"583","id0030",1,9,0,0,"AI","training_self",4,6,"GoldenRod","f","accept",6,209
"584","id0030",1,10,0,0,"human","training_self",9,1,"DarkOrchid","j","reject",0,164
"585","id0030",1,11,0,0,"human","training_self",5,5,"DarkOrchid","f","accept",5,322
"586","id0030",1,12,0,0,"AI","training_self",6,4,"GoldenRod","f","accept",4,274
"587","id0030",1,13,0,0,"AI","training_self",5,5,"GoldenRod","f","accept",5,134
"588","id0030",1,14,0,0,"AI","training_self",6,4,"GoldenRod","f","accept",4,368
"589","id0030",1,15,0,1,"AI","training_self",5,5,"GoldenRod","f","accept",5,255
"590","id0030",1,16,0,0,"AI","training_self",9,1,"GoldenRod","j","reject",0,120
"591","id0030",1,17,0,0,"human","training_self",6,4,"DarkOrchid","f","accept",4,220
"592","id0030",1,18,0,0,"AI","training_self",6,4,"GoldenRod","f","accept",4,231
"593","id0030",1,19,0,0,"human","training_self",4,6,"DarkOrchid","f","accept",6,257
"594","id0030",1,20,0,0,"human","training_self",7,3,"DarkOrchid","j","reject",0,2898
"595","id0030",1,21,0,0,"human","training_self",8,2,"DarkOrchid","j","reject",0,345
"596","id0030",1,22,0,0,"AI","training_self",7,3,"GoldenRod","j","reject",0,6
"597","id0030",1,23,0,0,"human","training_self",4,6,"DarkOrchid","f","accept",6,176
"598","id0030",1,24,0,0,"human","training_self",8,2,"DarkOrchid","j","reject",0,275
"599","id0031",0,1,1,0,"practice","Practice",1,9,"black","f","accept",9,657
"600","id0031",0,2,1,0,"practice","Practice",1,9,"black","f","accept",9,509
"601","id0031",1,1,0,0,"human","control",9,1,"DarkOrchid","j","reject",0,417
"602","id0031",1,2,0,0,"human","control",8,2,"DarkOrchid","j","reject",0,488
"603","id0031",1,3,0,0,"human","control",9,1,"DarkOrchid","j","reject",0,297
"604","id0031",1,4,0,0,"human","control",7,3,"DarkOrchid","j","reject",0,275
"605","id0031",1,5,0,0,"AI","control",5,5,"GoldenRod","f","accept",5,319
"606","id0031",1,6,0,0,"AI","control",6,4,"GoldenRod","f","accept",4,301
"607","id0031",1,7,0,0,"human","control",7,3,"DarkOrchid","j","reject",0,313
"608","id0031",1,8,0,0,"AI","control",6,4,"GoldenRod","f","accept",4,324
"609","id0031",1,9,0,0,"AI","control",7,3,"GoldenRod","j","reject",0,272
"610","id0031",1,10,0,0,"AI","control",6,4,"GoldenRod","f","accept",4,261
"611","id0031",1,11,0,0,"AI","control",9,1,"GoldenRod","j","reject",0,590
"612","id0031",1,12,0,0,"AI","control",4,6,"GoldenRod","f","accept",6,255
"613","id0031",1,13,0,0,"human","control",6,4,"DarkOrchid","f","accept",4,258
"614","id0031",1,14,0,0,"human","control",6,4,"DarkOrchid","f","accept",4,245
"615","id0031",1,15,0,1,"AI","control",8,2,"GoldenRod","j","reject",0,308
"616","id0031",1,16,0,0,"AI","control",4,6,"GoldenRod","f","accept",6,246
"617","id0031",1,17,0,0,"human","control",4,6,"DarkOrchid","f","accept",6,226
"618","id0031",1,18,0,0,"human","control",5,5,"DarkOrchid","f","accept",5,195
"619","id0031",1,19,0,0,"AI","control",6,4,"GoldenRod","f","accept",4,252
"620","id0031",1,20,0,0,"AI","control",4,6,"GoldenRod","f","accept",6,258
"621","id0031",1,21,0,0,"human","control",8,2,"DarkOrchid","j","reject",0,251
"622","id0031",1,22,0,0,"AI","control",6,4,"GoldenRod","f","accept",4,262
"623","id0031",1,23,0,0,"human","control",4,6,"DarkOrchid","f","accept",6,234
"624","id0031",1,24,0,0,"human","control",5,5,"DarkOrchid","f","accept",5,242
"625","id0032",0,1,1,0,"practice","Practice",8,2,"black","j","reject",0,1128
"626","id0032",0,2,1,0,"practice","Practice",8,2,"black","j","reject",0,747
"627","id0032",1,1,0,0,"human","training_self",4,6,"GoldenRod","f","accept",6,685
"628","id0032",1,2,0,0,"AI","training_self",5,5,"DarkOrchid","f","accept",5,421
"629","id0032",1,3,0,0,"AI","training_self",6,4,"DarkOrchid","f","accept",4,413
"630","id0032",1,4,0,0,"AI","training_self",4,6,"DarkOrchid","f","accept",6,449
"631","id0032",1,5,0,0,"AI","training_self",6,4,"DarkOrchid","f","accept",4,758
"632","id0032",1,6,0,0,"AI","training_self",8,2,"DarkOrchid","j","reject",0,1383
"633","id0032",1,7,0,0,"human","training_self",6,4,"GoldenRod","f","accept",4,371
"634","id0032",1,8,0,1,"AI","training_self",9,1,"DarkOrchid","j","reject",0,439
"635","id0032",1,9,0,0,"AI","training_self",7,3,"DarkOrchid","f","accept",3,498
"636","id0032",1,10,0,0,"human","training_self",8,2,"GoldenRod","j","reject",0,413
"637","id0032",1,11,0,0,"AI","training_self",8,2,"DarkOrchid","j","reject",0,356
"638","id0032",1,12,0,0,"AI","training_self",6,4,"DarkOrchid","f","accept",4,346
"639","id0032",1,13,0,0,"human","training_self",7,3,"GoldenRod","f","accept",3,415
"640","id0032",1,14,0,0,"human","training_self",4,6,"GoldenRod","f","accept",6,691
"641","id0032",1,15,0,0,"human","training_self",7,3,"GoldenRod","f","accept",3,428
"642","id0032",1,16,0,0,"AI","training_self",6,4,"DarkOrchid","f","accept",4,388
"643","id0032",1,17,0,0,"human","training_self",6,4,"GoldenRod","f","accept",4,1142
"644","id0032",1,18,0,0,"human","training_self",9,1,"GoldenRod","j","reject",0,415
"645","id0032",1,19,0,0,"human","training_self",8,2,"GoldenRod","j","reject",0,374
"646","id0032",1,20,0,0,"human","training_self",5,5,"GoldenRod","f","accept",5,2883
"647","id0032",1,21,0,0,"human","training_self",9,1,"GoldenRod","j","reject",0,363
"648","id0032",1,22,0,0,"AI","training_self",6,4,"DarkOrchid","f","accept",4,412
"649","id0032",1,23,0,0,"human","training_self",5,5,"GoldenRod","f","accept",5,547
"650","id0032",1,24,0,0,"AI","training_self",4,6,"DarkOrchid","f","accept",6,409
"651","id0033",0,1,1,0,"practice","Practice",6,4,"black","f","accept",4,214
"652","id0033",0,2,1,0,"practice","Practice",4,6,"black","f","accept",6,80
"653","id0033",1,1,0,0,"AI","training_self",9,1,"DarkOrchid","j","reject",0,582
"654","id0033",1,2,0,0,"AI","training_self",7,3,"DarkOrchid","j","reject",0,419
"655","id0033",1,3,0,0,"human","training_self",7,3,"GoldenRod","f","accept",3,415
"656","id0033",1,4,0,0,"AI","training_self",5,5,"DarkOrchid","f","accept",5,372
"657","id0033",1,5,0,0,"human","training_self",4,6,"GoldenRod","f","accept",6,329
"658","id0033",1,6,0,1,"human","training_self",8,2,"GoldenRod","f","accept",2,6
"659","id0033",1,7,0,0,"AI","training_self",6,4,"DarkOrchid","f","accept",4,262
"660","id0033",1,8,0,0,"human","training_self",9,1,"GoldenRod","j","reject",0,499
"661","id0033",1,9,0,0,"AI","training_self",8,2,"DarkOrchid","f","accept",2,38
"662","id0033",1,10,0,0,"human","training_self",6,4,"GoldenRod","f","accept",4,89
"663","id0033",1,11,0,0,"AI","training_self",5,5,"DarkOrchid","f","accept",5,488
"664","id0033",1,12,0,0,"human","training_self",5,5,"GoldenRod","f","accept",5,31
"665","id0033",1,13,0,0,"human","training_self",8,2,"GoldenRod","f","accept",2,229
"666","id0033",1,14,0,0,"human","training_self",9,1,"GoldenRod","f","accept",1,149
"667","id0033",1,15,0,0,"AI","training_self",8,2,"DarkOrchid","f","accept",2,453
"668","id0033",1,16,0,0,"AI","training_self",5,5,"DarkOrchid","f","accept",5,568
"669","id0033",1,17,0,0,"AI","training_self",4,6,"DarkOrchid","f","accept",6,438
"670","id0033",1,18,0,0,"human","training_self",5,5,"GoldenRod","f","accept",5,177
"671","id0033",1,19,0,0,"human","training_self",4,6,"GoldenRod","f","accept",6,74
"672","id0033",1,20,0,0,"AI","training_self",4,6,"DarkOrchid","f","accept",6,58
"673","id0033",1,21,0,0,"human","training_self",7,3,"GoldenRod","f","accept",3,347
"674","id0033",1,22,0,0,"human","training_self",6,4,"GoldenRod","f","accept",4,356
"675","id0033",1,23,0,0,"AI","training_self",5,5,"DarkOrchid","f","accept",5,52
"676","id0033",1,24,0,0,"AI","training_self",5,5,"DarkOrchid","f","accept",5,35
"677","id0034",0,1,1,0,"practice","Practice",2,8,"black","f","accept",8,1248
"678","id0034",0,2,1,0,"practice","Practice",8,2,"black","j","reject",0,517
"679","id0034",1,1,0,0,"human","control",4,6,"GoldenRod","f","accept",6,1199
"680","id0034",1,2,0,0,"AI","control",8,2,"DarkOrchid","f","accept",2,344
"681","id0034",1,3,0,0,"human","control",9,1,"GoldenRod","j","reject",0,366
"682","id0034",1,4,0,0,"AI","control",7,3,"DarkOrchid","f","accept",3,1565
"683","id0034",1,5,0,0,"human","control",9,1,"GoldenRod","j","reject",0,347
"684","id0034",1,6,0,0,"AI","control",5,5,"DarkOrchid","f","accept",5,292
"685","id0034",1,7,0,1,"human","control",5,5,"GoldenRod","f","accept",5,1459
"686","id0034",1,8,0,0,"human","control",8,2,"GoldenRod","j","reject",0,668
"687","id0034",1,9,0,0,"AI","control",6,4,"DarkOrchid","f","accept",4,815
"688","id0034",1,10,0,0,"human","control",4,6,"GoldenRod","f","accept",6,501
"689","id0034",1,11,0,0,"human","control",7,3,"GoldenRod","j","reject",0,1285
"690","id0034",1,12,0,0,"AI","control",4,6,"DarkOrchid","f","accept",6,351
"691","id0034",1,13,0,0,"human","control",6,4,"GoldenRod","f","accept",4,1891
"692","id0034",1,14,0,0,"AI","control",9,1,"DarkOrchid","j","reject",0,267
"693","id0034",1,15,0,0,"human","control",8,2,"GoldenRod","j","reject",0,425
"694","id0034",1,16,0,0,"human","control",5,5,"GoldenRod","f","accept",5,541
"695","id0034",1,17,0,0,"AI","control",6,4,"DarkOrchid","f","accept",4,323
"696","id0034",1,18,0,0,"AI","control",6,4,"DarkOrchid","f","accept",4,325
"697","id0034",1,19,0,0,"AI","control",5,5,"DarkOrchid","f","accept",5,588
"698","id0034",1,20,0,0,"human","control",6,4,"GoldenRod","f","accept",4,1190
"699","id0034",1,21,0,0,"AI","control",4,6,"DarkOrchid","f","accept",6,2014
"700","id0034",1,22,0,0,"human","control",7,3,"GoldenRod","f","accept",3,366
"701","id0034",1,23,0,0,"AI","control",4,6,"DarkOrchid","f","accept",6,819
"702","id0034",1,24,0,0,"AI","control",5,5,"DarkOrchid","f","accept",5,1258
"703","id0035",0,1,1,0,"practice","Practice",10,0,"black","j","reject",0,971
"704","id0035",0,2,1,0,"practice","Practice",9,1,"black","j","reject",0,348
"705","id0035",1,1,0,0,"human","control",5,5,"DarkOrchid","f","accept",5,432
"706","id0035",1,2,0,0,"human","control",9,1,"DarkOrchid","j","reject",0,502
"707","id0035",1,3,0,0,"AI","control",6,4,"GoldenRod","j","reject",0,353
"708","id0035",1,4,0,0,"AI","control",4,6,"GoldenRod","f","accept",6,521
"709","id0035",1,5,0,1,"human","control",4,6,"DarkOrchid","f","accept",6,306
"710","id0035",1,6,0,0,"AI","control",8,2,"GoldenRod","j","reject",0,620
"711","id0035",1,7,0,0,"AI","control",7,3,"GoldenRod","j","reject",0,312
"712","id0035",1,8,0,0,"human","control",7,3,"DarkOrchid","j","reject",0,402
"713","id0035",1,9,0,0,"human","control",8,2,"DarkOrchid","j","reject",0,246
"714","id0035",1,10,0,0,"AI","control",5,5,"GoldenRod","f","accept",5,291
"715","id0035",1,11,0,0,"AI","control",5,5,"GoldenRod","f","accept",5,301
"716","id0035",1,12,0,0,"human","control",9,1,"DarkOrchid","j","reject",0,407
"717","id0035",1,13,0,0,"human","control",6,4,"DarkOrchid","j","reject",0,235
"718","id0035",1,14,0,0,"AI","control",9,1,"GoldenRod","j","reject",0,361
"719","id0035",1,15,0,0,"human","control",4,6,"DarkOrchid","f","accept",6,176
"720","id0035",1,16,0,0,"human","control",5,5,"DarkOrchid","f","accept",5,38
"721","id0035",1,17,0,0,"AI","control",6,4,"GoldenRod","j","reject",0,409
"722","id0035",1,18,0,0,"human","control",7,3,"DarkOrchid","j","reject",0,247
"723","id0035",1,19,0,0,"AI","control",9,1,"GoldenRod","j","reject",0,676
"724","id0035",1,20,0,0,"human","control",8,2,"DarkOrchid","j","reject",0,22
"725","id0035",1,21,0,0,"human","control",6,4,"DarkOrchid","j","reject",0,867
"726","id0035",1,22,0,0,"AI","control",5,5,"GoldenRod","f","accept",5,421
"727","id0035",1,23,0,0,"AI","control",6,4,"GoldenRod","j","reject",0,66
"728","id0035",1,24,0,0,"AI","control",6,4,"GoldenRod","j","reject",0,102
"729","id0037",0,1,1,0,"practice","Practice",4,6,"black","f","accept",6,473
"730","id0037",0,2,1,0,"practice","Practice",4,6,"black","f","accept",6,496
"731","id0037",1,1,0,0,"AI","training_others",4,6,"GoldenRod","f","accept",6,797
"732","id0037",1,2,0,0,"human","training_others",7,3,"DarkOrchid","f","accept",3,260
"733","id0037",1,3,0,0,"AI","training_others",9,1,"GoldenRod","f","accept",1,753
"734","id0037",1,4,0,0,"human","training_others",4,6,"DarkOrchid","f","accept",6,364
"735","id0037",1,5,0,0,"human","training_others",6,4,"DarkOrchid","f","accept",4,424
"736","id0037",1,6,0,0,"AI","training_others",6,4,"GoldenRod","f","accept",4,409
"737","id0037",1,7,0,0,"AI","training_others",8,2,"GoldenRod","f","accept",2,379
"738","id0037",1,8,0,0,"AI","training_others",7,3,"GoldenRod","f","accept",3,510
"739","id0037",1,9,0,0,"human","training_others",8,2,"DarkOrchid","f","accept",2,365
"740","id0037",1,10,0,0,"AI","training_others",6,4,"GoldenRod","f","accept",4,624
"741","id0037",1,11,0,0,"human","training_others",9,1,"DarkOrchid","f","accept",1,325
"742","id0037",1,12,0,0,"human","training_others",5,5,"DarkOrchid","f","accept",5,741
"743","id0037",1,13,0,1,"human","training_others",9,1,"DarkOrchid","f","accept",1,428
"744","id0037",1,14,0,0,"AI","training_others",5,5,"GoldenRod","f","accept",5,547
"745","id0037",1,15,0,0,"human","training_others",6,4,"DarkOrchid","f","accept",4,330
"746","id0037",1,16,0,0,"AI","training_others",5,5,"GoldenRod","f","accept",5,537
"747","id0037",1,17,0,0,"human","training_others",8,2,"DarkOrchid","f","accept",2,303
"748","id0037",1,18,0,0,"human","training_others",7,3,"DarkOrchid","f","accept",3,267
"749","id0037",1,19,0,0,"AI","training_others",5,5,"GoldenRod","f","accept",5,535
"750","id0037",1,20,0,0,"human","training_others",4,6,"DarkOrchid","f","accept",6,317
"751","id0037",1,21,0,0,"AI","training_others",6,4,"GoldenRod","f","accept",4,385
"752","id0037",1,22,0,0,"AI","training_others",7,3,"GoldenRod","f","accept",3,447
"753","id0037",1,23,0,0,"human","training_others",5,5,"DarkOrchid","f","accept",5,513
"754","id0037",1,24,0,0,"AI","training_others",6,4,"GoldenRod","f","accept",4,396
"755","id0038",0,1,1,0,"practice","Practice",10,0,"black","j","reject",0,1382
"756","id0038",0,2,1,0,"practice","Practice",1,9,"black","f","accept",9,242
"757","id0038",1,1,0,0,"AI","training_self",9,1,"DarkOrchid","f","accept",1,965
"758","id0038",1,2,0,0,"human","training_self",5,5,"GoldenRod","f","accept",5,661
"759","id0038",1,3,0,0,"human","training_self",7,3,"GoldenRod","f","accept",3,906
"760","id0038",1,4,0,0,"AI","training_self",8,2,"DarkOrchid","f","accept",2,511
"761","id0038",1,5,0,0,"AI","training_self",5,5,"DarkOrchid","f","accept",5,606
"762","id0038",1,6,0,0,"AI","training_self",5,5,"DarkOrchid","f","accept",5,485
"763","id0038",1,7,0,0,"human","training_self",6,4,"GoldenRod","f","accept",4,541
"764","id0038",1,8,0,0,"human","training_self",7,3,"GoldenRod","f","accept",3,726
"765","id0038",1,9,0,0,"AI","training_self",7,3,"DarkOrchid","f","accept",3,710
"766","id0038",1,10,0,0,"human","training_self",8,2,"GoldenRod","f","accept",2,713
"767","id0038",1,11,0,0,"human","training_self",4,6,"GoldenRod","f","accept",6,571
"768","id0038",1,12,0,0,"human","training_self",5,5,"GoldenRod","f","accept",5,603
"769","id0038",1,13,0,0,"human","training_self",4,6,"GoldenRod","f","accept",6,453
"770","id0038",1,14,0,0,"AI","training_self",7,3,"DarkOrchid","f","accept",3,696
"771","id0038",1,15,0,0,"human","training_self",9,1,"GoldenRod","f","accept",1,752
"772","id0038",1,16,0,0,"AI","training_self",6,4,"DarkOrchid","f","accept",4,636
"773","id0038",1,17,0,0,"AI","training_self",4,6,"DarkOrchid","f","accept",6,572
"774","id0038",1,18,0,0,"human","training_self",6,4,"GoldenRod","f","accept",4,1086
"775","id0038",1,19,0,0,"AI","training_self",4,6,"DarkOrchid","f","accept",6,663
"776","id0038",1,20,0,0,"human","training_self",8,2,"GoldenRod","f","accept",2,754
"777","id0038",1,21,0,0,"AI","training_self",5,5,"DarkOrchid","f","accept",5,455
"778","id0038",1,22,0,0,"AI","training_self",5,5,"DarkOrchid","f","accept",5,457
"779","id0038",1,23,0,1,"human","training_self",9,1,"GoldenRod","f","accept",1,635
"780","id0038",1,24,0,0,"AI","training_self",6,4,"DarkOrchid","f","accept",4,392
"781","id0039",0,1,1,0,"practice","Practice",3,7,"black","f","accept",7,743
"782","id0039",0,2,1,0,"practice","Practice",9,1,"black","j","reject",0,557
"783","id0039",1,1,0,0,"AI","training_others",7,3,"GoldenRod","j","reject",0,553
"784","id0039",1,2,0,0,"AI","training_others",8,2,"GoldenRod","j","reject",0,353
"785","id0039",1,3,0,0,"human","training_others",8,2,"DarkOrchid","j","reject",0,412
"786","id0039",1,4,0,0,"AI","training_others",6,4,"GoldenRod","f","accept",4,322
"787","id0039",1,5,0,0,"AI","training_others",9,1,"GoldenRod","j","reject",0,287
"788","id0039",1,6,0,0,"human","training_others",8,2,"DarkOrchid","j","reject",0,279
"789","id0039",1,7,0,0,"AI","training_others",5,5,"GoldenRod","f","accept",5,316
"790","id0039",1,8,0,0,"human","training_others",6,4,"DarkOrchid","f","accept",4,246
"791","id0039",1,9,0,0,"AI","training_others",4,6,"GoldenRod","f","accept",6,372
"792","id0039",1,10,0,0,"AI","training_others",5,5,"GoldenRod","f","accept",5,323
"793","id0039",1,11,0,0,"AI","training_others",5,5,"GoldenRod","f","accept",5,272
"794","id0039",1,12,0,0,"human","training_others",7,3,"DarkOrchid","j","reject",0,283
"795","id0039",1,13,0,0,"AI","training_others",7,3,"GoldenRod","j","reject",0,300
"796","id0039",1,14,0,0,"human","training_others",9,1,"DarkOrchid","j","reject",0,324
"797","id0039",1,15,0,0,"human","training_others",9,1,"DarkOrchid","j","reject",0,265
"798","id0039",1,16,0,0,"human","training_others",5,5,"DarkOrchid","f","accept",5,309
"799","id0039",1,17,0,0,"AI","training_others",4,6,"GoldenRod","f","accept",6,289
"800","id0039",1,18,0,1,"human","training_others",4,6,"DarkOrchid","f","accept",6,263
"801","id0039",1,19,0,0,"human","training_others",6,4,"DarkOrchid","f","accept",4,290
"802","id0039",1,20,0,0,"human","training_others",5,5,"DarkOrchid","f","accept",5,271
"803","id0039",1,21,0,0,"AI","training_others",6,4,"GoldenRod","f","accept",4,369
"804","id0039",1,22,0,0,"human","training_others",4,6,"DarkOrchid","f","accept",6,267
"805","id0039",1,23,0,0,"AI","training_others",7,3,"GoldenRod","j","reject",0,318
"806","id0039",1,24,0,0,"human","training_others",7,3,"DarkOrchid","j","reject",0,484
"807","id0040",0,1,1,0,"practice","Practice",4,6,"black","f","accept",6,1660
"808","id0040",0,2,1,0,"practice","Practice",4,6,"black","f","accept",6,1585
"809","id0040",1,1,0,0,"AI","training_others",9,1,"GoldenRod","j","reject",0,726
"810","id0040",1,2,0,0,"human","training_others",9,1,"DarkOrchid","j","reject",0,377
"811","id0040",1,3,0,0,"AI","training_others",5,5,"GoldenRod","f","accept",5,393
"812","id0040",1,4,0,0,"human","training_others",7,3,"DarkOrchid","f","accept",3,1422
"813","id0040",1,5,0,0,"AI","training_others",8,2,"GoldenRod","j","reject",0,422
"814","id0040",1,6,0,0,"human","training_others",7,3,"DarkOrchid","j","reject",0,342
"815","id0040",1,7,0,0,"human","training_others",6,4,"DarkOrchid","f","accept",4,614
"816","id0040",1,8,0,0,"human","training_others",9,1,"DarkOrchid","j","reject",0,370
"817","id0040",1,9,0,0,"human","training_others",4,6,"DarkOrchid","f","accept",6,747
"818","id0040",1,10,0,0,"human","training_others",5,5,"DarkOrchid","f","accept",5,484
"819","id0040",1,11,0,0,"human","training_others",4,6,"DarkOrchid","f","accept",6,566
"820","id0040",1,12,0,0,"human","training_others",8,2,"DarkOrchid","j","reject",0,560
"821","id0040",1,13,0,0,"AI","training_others",6,4,"GoldenRod","f","accept",4,595
"822","id0040",1,14,0,0,"AI","training_others",7,3,"GoldenRod","f","accept",3,1519
"823","id0040",1,15,0,0,"AI","training_others",7,3,"GoldenRod","j","reject",0,477
"824","id0040",1,16,0,0,"AI","training_others",4,6,"GoldenRod","f","accept",6,835
"825","id0040",1,17,0,0,"AI","training_others",4,6,"GoldenRod","f","accept",6,368
"826","id0040",1,18,0,0,"human","training_others",6,4,"DarkOrchid","f","accept",4,537
"827","id0040",1,19,0,0,"AI","training_others",7,3,"GoldenRod","j","reject",0,437
"828","id0040",1,20,0,1,"AI","training_others",6,4,"GoldenRod","f","accept",4,385
"829","id0040",1,21,0,0,"AI","training_others",4,6,"GoldenRod","f","accept",6,526
"830","id0040",1,22,0,0,"AI","training_others",4,6,"GoldenRod","f","accept",6,506
"831","id0040",1,23,0,0,"human","training_others",8,2,"DarkOrchid","j","reject",0,708
"832","id0040",1,24,0,0,"human","training_others",5,5,"DarkOrchid","f","accept",5,499
"833","id0041",0,1,1,0,"practice","Practice",3,7,"black","f","accept",7,824
"834","id0041",0,2,1,0,"practice","Practice",2,8,"black","f","accept",8,356
"835","id0041",1,1,0,0,"AI","training_self",9,1,"DarkOrchid","j","reject",0,3085
"836","id0041",1,2,0,0,"human","training_self",6,4,"GoldenRod","f","accept",4,665
"837","id0041",1,3,0,0,"AI","training_self",7,3,"DarkOrchid","j","reject",0,6450
"838","id0041",1,4,0,0,"AI","training_self",5,5,"DarkOrchid","f","accept",5,286
"839","id0041",1,5,0,0,"AI","training_self",8,2,"DarkOrchid","j","reject",0,564
"840","id0041",1,6,0,0,"human","training_self",5,5,"GoldenRod","f","accept",5,330
"841","id0041",1,7,0,0,"human","training_self",6,4,"GoldenRod","f","accept",4,419
"842","id0041",1,8,0,0,"human","training_self",8,2,"GoldenRod","j","reject",0,100
"843","id0041",1,9,0,0,"human","training_self",4,6,"GoldenRod","f","accept",6,360
"844","id0041",1,10,0,0,"human","training_self",9,1,"GoldenRod","j","reject",0,588
"845","id0041",1,11,0,0,"AI","training_self",4,6,"DarkOrchid","f","accept",6,361
"846","id0041",1,12,0,0,"AI","training_self",7,3,"DarkOrchid","j","reject",0,664
"847","id0041",1,13,0,0,"AI","training_self",6,4,"DarkOrchid","f","accept",4,439
"848","id0041",1,14,0,0,"human","training_self",8,2,"GoldenRod","j","reject",0,484
"849","id0041",1,15,0,0,"human","training_self",5,5,"GoldenRod","f","accept",5,2
"850","id0041",1,16,0,0,"AI","training_self",4,6,"DarkOrchid","f","accept",6,587
"851","id0041",1,17,0,0,"AI","training_self",6,4,"DarkOrchid","f","accept",4,527
"852","id0041",1,18,0,1,"human","training_self",7,3,"GoldenRod","j","reject",0,403
"853","id0041",1,19,0,0,"human","training_self",4,6,"GoldenRod","f","accept",6,171
"854","id0041",1,20,0,0,"AI","training_self",5,5,"DarkOrchid","f","accept",5,166
"855","id0041",1,21,0,0,"AI","training_self",5,5,"DarkOrchid","f","accept",5,592
"856","id0041",1,22,0,0,"AI","training_self",5,5,"DarkOrchid","f","accept",5,215
"857","id0041",1,23,0,0,"human","training_self",9,1,"GoldenRod","j","reject",0,107
"858","id0041",1,24,0,0,"human","training_self",7,3,"GoldenRod","j","reject",0,34
"859","id0042",0,1,1,0,"practice","Practice",6,4,"black","j","reject",0,2772
"860","id0042",0,2,1,0,"practice","Practice",2,8,"black","f","accept",8,4872
"861","id0042",1,1,0,0,"human","training_others",6,4,"GoldenRod","j","reject",0,3631
"862","id0042",1,2,0,0,"AI","training_others",5,5,"DarkOrchid","f","accept",5,1497
"863","id0042",1,3,0,0,"AI","training_others",6,4,"DarkOrchid","j","reject",0,3454
"864","id0042",1,4,0,1,"AI","training_others",7,3,"DarkOrchid","j","reject",0,3514
"865","id0042",1,5,0,0,"human","training_others",4,6,"GoldenRod","f","accept",6,1902
"866","id0042",1,6,0,0,"human","training_others",5,5,"GoldenRod","f","accept",5,1215
"867","id0042",1,7,0,0,"human","training_others",9,1,"GoldenRod","j","reject",0,4452
"868","id0042",1,8,0,0,"AI","training_others",4,6,"DarkOrchid","f","accept",6,2178
"869","id0042",1,9,0,0,"AI","training_others",5,5,"DarkOrchid","f","accept",5,1092
"870","id0042",1,10,0,0,"human","training_others",7,3,"GoldenRod","j","reject",0,3475
"871","id0042",1,11,0,0,"AI","training_others",9,1,"DarkOrchid","j","reject",0,5809
"872","id0042",1,12,0,0,"human","training_others",8,2,"GoldenRod","j","reject",0,2193
"873","id0042",1,13,0,0,"human","training_others",9,1,"GoldenRod","j","reject",0,2162
"874","id0042",1,14,0,0,"AI","training_others",8,2,"DarkOrchid","j","reject",0,2591
"875","id0042",1,15,0,0,"AI","training_others",6,4,"DarkOrchid","j","reject",0,2443
"876","id0042",1,16,0,0,"human","training_others",4,6,"GoldenRod","f","accept",6,3534
"877","id0042",1,17,0,0,"AI","training_others",4,6,"DarkOrchid","j","reject",0,6941
"878","id0042",1,18,0,0,"human","training_others",8,2,"GoldenRod","j","reject",0,8471
"879","id0042",1,19,0,0,"AI","training_others",5,5,"DarkOrchid","f","accept",5,951
"880","id0042",1,20,0,0,"human","training_others",7,3,"GoldenRod","j","reject",0,1118
"881","id0042",1,21,0,0,"human","training_others",5,5,"GoldenRod","f","accept",5,797
"882","id0042",1,22,0,0,"AI","training_others",5,5,"DarkOrchid","f","accept",5,640
"883","id0042",1,23,0,0,"AI","training_others",5,5,"DarkOrchid","f","accept",5,1593
"884","id0042",1,24,0,0,"human","training_others",6,4,"GoldenRod","j","reject",0,980
"885","id0043",0,1,1,0,"practice","Practice",9,1,"black","j","reject",0,5116
"886","id0043",0,2,1,0,"practice","Practice",6,4,"black","f","accept",4,1530
"887","id0043",1,1,0,0,"human","training_others",8,2,"GoldenRod","f","accept",2,3837
"888","id0043",1,2,0,0,"AI","training_others",9,1,"DarkOrchid","j","reject",0,1416
"889","id0043",1,3,0,1,"AI","training_others",8,2,"DarkOrchid","f","accept",2,732
"890","id0043",1,4,0,0,"AI","training_others",7,3,"DarkOrchid","f","accept",3,270
"891","id0043",1,5,0,0,"human","training_others",5,5,"GoldenRod","f","accept",5,782
"892","id0043",1,6,0,0,"AI","training_others",6,4,"DarkOrchid","f","accept",4,930
"893","id0043",1,7,0,0,"AI","training_others",7,3,"DarkOrchid","f","accept",3,867
"894","id0043",1,8,0,0,"human","training_others",9,1,"GoldenRod","j","reject",0,847
"895","id0043",1,9,0,0,"human","training_others",8,2,"GoldenRod","f","accept",2,975
"896","id0043",1,10,0,0,"human","training_others",5,5,"GoldenRod","f","accept",5,494
"897","id0043",1,11,0,0,"human","training_others",4,6,"GoldenRod","f","accept",6,1121
"898","id0043",1,12,0,0,"human","training_others",6,4,"GoldenRod","f","accept",4,876
"899","id0043",1,13,0,0,"human","training_others",7,3,"GoldenRod","f","accept",3,467
"900","id0043",1,14,0,0,"AI","training_others",6,4,"DarkOrchid","f","accept",4,875
"901","id0043",1,15,0,0,"AI","training_others",5,5,"DarkOrchid","f","accept",5,637
"902","id0043",1,16,0,0,"human","training_others",6,4,"GoldenRod","f","accept",4,574
"903","id0043",1,17,0,0,"human","training_others",4,6,"GoldenRod","f","accept",6,933
"904","id0043",1,18,0,0,"AI","training_others",4,6,"DarkOrchid","f","accept",6,835
"905","id0043",1,19,0,0,"human","training_others",7,3,"GoldenRod","f","accept",3,921
"906","id0043",1,20,0,0,"AI","training_others",5,5,"DarkOrchid","f","accept",5,1031
"907","id0043",1,21,0,0,"AI","training_others",5,5,"DarkOrchid","f","accept",5,460
"908","id0043",1,22,0,0,"AI","training_others",6,4,"DarkOrchid","f","accept",4,547
"909","id0043",1,23,0,0,"AI","training_others",6,4,"DarkOrchid","f","accept",4,623
"910","id0043",1,24,0,0,"human","training_others",9,1,"GoldenRod","j","reject",0,1005
"911","id0044",0,1,1,0,"practice","Practice",10,0,"black","j","reject",0,3910
"912","id0044",0,2,1,0,"practice","Practice",7,3,"black","j","reject",0,3430
"913","id0044",1,1,0,0,"human","training_others",4,6,"DarkOrchid","f","accept",6,373
"914","id0044",1,2,0,0,"human","training_others",9,1,"DarkOrchid","j","reject",0,461
"915","id0044",1,3,0,0,"AI","training_others",7,3,"GoldenRod","j","reject",0,1810
"916","id0044",1,4,0,0,"AI","training_others",5,5,"GoldenRod","f","accept",5,332
"917","id0044",1,5,0,0,"AI","training_others",8,2,"GoldenRod","j","reject",0,478
"918","id0044",1,6,0,0,"AI","training_others",7,3,"GoldenRod","j","reject",0,420
"919","id0044",1,7,0,0,"AI","training_others",9,1,"GoldenRod","j","reject",0,402
"920","id0044",1,8,0,0,"human","training_others",8,2,"DarkOrchid","j","reject",0,451
"921","id0044",1,9,0,0,"AI","training_others",6,4,"GoldenRod","j","reject",0,2471
"922","id0044",1,10,0,0,"human","training_others",4,6,"DarkOrchid","f","accept",6,586
"923","id0044",1,11,0,0,"AI","training_others",4,6,"GoldenRod","f","accept",6,667
"924","id0044",1,12,0,0,"human","training_others",6,4,"DarkOrchid","j","reject",0,417
"925","id0044",1,13,0,0,"human","training_others",7,3,"DarkOrchid","j","reject",0,612
"926","id0044",1,14,0,1,"AI","training_others",7,3,"GoldenRod","j","reject",0,412
"927","id0044",1,15,0,0,"human","training_others",8,2,"DarkOrchid","j","reject",0,391
"928","id0044",1,16,0,0,"AI","training_others",7,3,"GoldenRod","j","reject",0,421
"929","id0044",1,17,0,0,"AI","training_others",5,5,"GoldenRod","f","accept",5,579
"930","id0044",1,18,0,0,"human","training_others",5,5,"DarkOrchid","f","accept",5,482
"931","id0044",1,19,0,0,"AI","training_others",4,6,"GoldenRod","f","accept",6,1546
"932","id0044",1,20,0,0,"AI","training_others",6,4,"GoldenRod","j","reject",0,473
"933","id0044",1,21,0,0,"human","training_others",7,3,"DarkOrchid","j","reject",0,450
"934","id0044",1,22,0,0,"human","training_others",6,4,"DarkOrchid","j","reject",0,325
"935","id0044",1,23,0,0,"human","training_others",9,1,"DarkOrchid","j","reject",0,502
"936","id0044",1,24,0,0,"human","training_others",5,5,"DarkOrchid","f","accept",5,563
"937","id0045",0,1,1,0,"practice","Practice",5,5,"black","f","accept",5,2268
"938","id0045",0,2,1,0,"practice","Practice",6,4,"black","f","accept",4,538
"939","id0045",1,1,0,0,"AI","training_others",7,3,"DarkOrchid","j","reject",0,19
"940","id0045",1,2,0,0,"human","training_others",9,1,"GoldenRod","j","reject",0,786
"941","id0045",1,3,0,0,"human","training_others",8,2,"GoldenRod","j","reject",0,956
"942","id0045",1,4,0,0,"AI","training_others",8,2,"DarkOrchid","j","reject",0,1034
"943","id0045",1,5,0,0,"AI","training_others",5,5,"DarkOrchid","f","accept",5,321
"944","id0045",1,6,0,0,"AI","training_others",9,1,"DarkOrchid","j","reject",0,354
"945","id0045",1,7,0,0,"human","training_others",6,4,"GoldenRod","f","accept",4,410
"946","id0045",1,8,0,0,"AI","training_others",7,3,"DarkOrchid","f","accept",3,403
"947","id0045",1,9,0,0,"human","training_others",4,6,"GoldenRod","f","accept",6,458
"948","id0045",1,10,0,0,"human","training_others",7,3,"GoldenRod","f","accept",3,442
"949","id0045",1,11,0,1,"AI","training_others",5,5,"DarkOrchid","f","accept",5,418
"950","id0045",1,12,0,0,"human","training_others",8,2,"GoldenRod","f","accept",2,532
"951","id0045",1,13,0,0,"human","training_others",9,1,"GoldenRod","j","reject",0,395
"952","id0045",1,14,0,0,"AI","training_others",6,4,"DarkOrchid","f","accept",4,490
"953","id0045",1,15,0,0,"AI","training_others",4,6,"DarkOrchid","f","accept",6,1218
"954","id0045",1,16,0,0,"human","training_others",5,5,"GoldenRod","f","accept",5,1781
"955","id0045",1,17,0,0,"AI","training_others",6,4,"DarkOrchid","f","accept",4,395
"956","id0045",1,18,0,0,"AI","training_others",4,6,"DarkOrchid","f","accept",6,483
"957","id0045",1,19,0,0,"human","training_others",7,3,"GoldenRod","f","accept",3,299
"958","id0045",1,20,0,0,"human","training_others",4,6,"GoldenRod","f","accept",6,396
"959","id0045",1,21,0,0,"AI","training_others",5,5,"DarkOrchid","f","accept",5,247
"960","id0045",1,22,0,0,"AI","training_others",7,3,"DarkOrchid","f","accept",3,6605
"961","id0045",1,23,0,0,"human","training_others",6,4,"GoldenRod","f","accept",4,485
"962","id0045",1,24,0,0,"human","training_others",5,5,"GoldenRod","f","accept",5,443
"963","id0046",0,1,1,0,"practice","Practice",3,7,"black","f","accept",7,4947
"964","id0046",0,2,1,0,"practice","Practice",1,9,"black","f","accept",9,3746
"965","id0046",1,1,0,0,"AI","control",8,2,"GoldenRod","f","accept",2,2939
"966","id0046",1,2,0,0,"human","control",9,1,"DarkOrchid","j","reject",0,1519
"967","id0046",1,3,0,0,"AI","control",6,4,"GoldenRod","f","accept",4,825
"968","id0046",1,4,0,0,"human","control",5,5,"DarkOrchid","f","accept",5,1831
"969","id0046",1,5,0,0,"human","control",7,3,"DarkOrchid","f","accept",3,2996
"970","id0046",1,6,0,0,"AI","control",9,1,"GoldenRod","j","reject",0,774
"971","id0046",1,7,0,0,"AI","control",7,3,"GoldenRod","f","accept",3,476
"972","id0046",1,8,0,0,"AI","control",8,2,"GoldenRod","j","reject",0,2686
"973","id0046",1,9,0,0,"human","control",4,6,"DarkOrchid","f","accept",6,723
"974","id0046",1,10,0,0,"human","control",5,5,"DarkOrchid","f","accept",5,454
"975","id0046",1,11,0,0,"human","control",8,2,"DarkOrchid","f","accept",2,33569
"976","id0046",1,12,0,0,"AI","control",5,5,"GoldenRod","f","accept",5,59848
"977","id0046",1,13,0,0,"AI","control",4,6,"GoldenRod","f","accept",6,932
"978","id0046",1,14,0,1,"human","control",4,6,"DarkOrchid","f","accept",6,534
"979","id0046",1,15,0,0,"human","control",9,1,"DarkOrchid","j","reject",0,977
"980","id0046",1,16,0,0,"AI","control",5,5,"GoldenRod","f","accept",5,1837
"981","id0046",1,17,0,0,"human","control",6,4,"DarkOrchid","f","accept",4,762
"982","id0046",1,18,0,0,"human","control",7,3,"DarkOrchid","f","accept",3,455
"983","id0046",1,19,0,0,"AI","control",5,5,"GoldenRod","f","accept",5,424
"984","id0046",1,20,0,0,"human","control",6,4,"DarkOrchid","f","accept",4,449
"985","id0046",1,21,0,0,"AI","control",6,4,"GoldenRod","f","accept",4,506
"986","id0046",1,22,0,0,"AI","control",4,6,"GoldenRod","f","accept",6,461
"987","id0046",1,23,0,0,"AI","control",6,4,"GoldenRod","f","accept",4,535
"988","id0046",1,24,0,0,"human","control",8,2,"DarkOrchid","f","accept",2,2053
"989","id0047",0,1,1,0,"practice","Practice",5,5,"black","f","accept",5,618
"990","id0047",0,2,1,0,"practice","Practice",5,5,"black","f","accept",5,962
"991","id0047",1,1,0,0,"human","control",5,5,"GoldenRod","f","accept",5,488
"992","id0047",1,2,0,0,"AI","control",4,6,"DarkOrchid","f","accept",6,303
"993","id0047",1,3,0,0,"AI","control",8,2,"DarkOrchid","f","accept",2,1007
"994","id0047",1,4,0,0,"human","control",6,4,"GoldenRod","f","accept",4,392
"995","id0047",1,5,0,0,"human","control",8,2,"GoldenRod","f","accept",2,512
"996","id0047",1,6,0,1,"human","control",8,2,"GoldenRod","f","accept",2,468
"997","id0047",1,7,0,0,"AI","control",5,5,"DarkOrchid","f","accept",5,477
"998","id0047",1,8,0,0,"human","control",4,6,"GoldenRod","f","accept",6,502
"999","id0047",1,9,0,0,"AI","control",7,3,"DarkOrchid","f","accept",3,599
"1000","id0047",1,10,0,0,"human","control",9,1,"GoldenRod","j","reject",0,3894
"1001","id0047",1,11,0,0,"AI","control",5,5,"DarkOrchid","f","accept",5,583
"1002","id0047",1,12,0,0,"AI","control",4,6,"DarkOrchid","f","accept",6,446
"1003","id0047",1,13,0,0,"human","control",5,5,"GoldenRod","f","accept",5,403
"1004","id0047",1,14,0,0,"AI","control",5,5,"DarkOrchid","f","accept",5,407
"1005","id0047",1,15,0,0,"human","control",6,4,"GoldenRod","f","accept",4,319
"1006","id0047",1,16,0,0,"AI","control",6,4,"DarkOrchid","f","accept",4,229
"1007","id0047",1,17,0,0,"human","control",7,3,"GoldenRod","f","accept",3,856
"1008","id0047",1,18,0,0,"human","control",4,6,"GoldenRod","f","accept",6,530
"1009","id0047",1,19,0,0,"AI","control",9,1,"DarkOrchid","j","reject",0,2836
"1010","id0047",1,20,0,0,"AI","control",5,5,"DarkOrchid","f","accept",5,687
"1011","id0047",1,21,0,0,"AI","control",5,5,"DarkOrchid","f","accept",5,704
"1012","id0047",1,22,0,0,"human","control",7,3,"GoldenRod","f","accept",3,425
"1013","id0047",1,23,0,0,"human","control",9,1,"GoldenRod","j","reject",0,4972
"1014","id0047",1,24,0,0,"AI","control",4,6,"DarkOrchid","f","accept",6,661
"1015","id0049",0,1,1,0,"practice","Practice",8,2,"black","f","accept",2,615
"1016","id0049",0,2,1,0,"practice","Practice",9,1,"black","f","accept",1,879
"1017","id0049",1,1,0,0,"AI","control",6,4,"DarkOrchid","f","accept",4,808
"1018","id0049",1,2,0,0,"AI","control",7,3,"DarkOrchid","f","accept",3,2079
"1019","id0049",1,3,0,0,"human","control",5,5,"GoldenRod","f","accept",5,1373
"1020","id0049",1,4,0,0,"AI","control",5,5,"DarkOrchid","f","accept",5,528
"1021","id0049",1,5,0,0,"human","control",8,2,"GoldenRod","f","accept",2,779
"1022","id0049",1,6,0,0,"human","control",4,6,"GoldenRod","f","accept",6,441
"1023","id0049",1,7,0,0,"AI","control",9,1,"DarkOrchid","f","accept",1,490
"1024","id0049",1,8,0,0,"human","control",9,1,"GoldenRod","f","accept",1,380
"1025","id0049",1,9,0,0,"human","control",7,3,"GoldenRod","f","accept",3,442
"1026","id0049",1,10,0,0,"human","control",6,4,"GoldenRod","f","accept",4,615
"1027","id0049",1,11,0,0,"human","control",9,1,"GoldenRod","f","accept",1,1396
"1028","id0049",1,12,0,0,"AI","control",4,6,"DarkOrchid","f","accept",6,548
"1029","id0049",1,13,0,0,"AI","control",8,2,"DarkOrchid","f","accept",2,962
"1030","id0049",1,14,0,0,"AI","control",6,4,"DarkOrchid","f","accept",4,766
"1031","id0049",1,15,0,1,"human","control",8,2,"GoldenRod","f","accept",2,649
"1032","id0049",1,16,0,0,"human","control",5,5,"GoldenRod","f","accept",5,718
"1033","id0049",1,17,0,0,"AI","control",4,6,"DarkOrchid","f","accept",6,524
"1034","id0049",1,18,0,0,"human","control",6,4,"GoldenRod","f","accept",4,891
"1035","id0049",1,19,0,0,"AI","control",5,5,"DarkOrchid","f","accept",5,742
"1036","id0049",1,20,0,0,"AI","control",8,2,"DarkOrchid","f","accept",2,906
"1037","id0049",1,21,0,0,"AI","control",6,4,"DarkOrchid","f","accept",4,858
"1038","id0049",1,22,0,0,"AI","control",4,6,"DarkOrchid","f","accept",6,643
"1039","id0049",1,23,0,0,"human","control",7,3,"GoldenRod","f","accept",3,616
"1040","id0049",1,24,0,0,"human","control",4,6,"GoldenRod","f","accept",6,1071
"1041","id0050",0,1,1,0,"practice","Practice",1,9,"black","j","reject",0,606
"1042","id0050",0,2,1,0,"practice","Practice",8,2,"black","j","reject",0,732
"1043","id0050",1,1,0,0,"human","training_others",6,4,"GoldenRod","f","accept",4,220
"1044","id0050",1,2,0,0,"AI","training_others",9,1,"DarkOrchid","j","reject",0,331
"1045","id0050",1,3,0,0,"AI","training_others",5,5,"DarkOrchid","f","accept",5,434
"1046","id0050",1,4,0,0,"human","training_others",6,4,"GoldenRod","f","accept",4,827
"1047","id0050",1,5,0,0,"AI","training_others",8,2,"DarkOrchid","j","reject",0,329
"1048","id0050",1,6,0,0,"human","training_others",4,6,"GoldenRod","f","accept",6,581
"1049","id0050",1,7,0,0,"human","training_others",5,5,"GoldenRod","f","accept",5,418
"1050","id0050",1,8,0,0,"AI","training_others",4,6,"DarkOrchid","f","accept",6,437
"1051","id0050",1,9,0,0,"AI","training_others",7,3,"DarkOrchid","j","reject",0,371
"1052","id0050",1,10,0,0,"human","training_others",8,2,"GoldenRod","j","reject",0,690
"1053","id0050",1,11,0,0,"human","training_others",8,2,"GoldenRod","j","reject",0,731
"1054","id0050",1,12,0,0,"human","training_others",4,6,"GoldenRod","f","accept",6,916
"1055","id0050",1,13,0,0,"human","training_others",7,3,"GoldenRod","j","reject",0,375
"1056","id0050",1,14,0,0,"human","training_others",9,1,"GoldenRod","j","reject",0,519
"1057","id0050",1,15,0,0,"human","training_others",9,1,"GoldenRod","j","reject",0,432
"1058","id0050",1,16,0,0,"AI","training_others",7,3,"DarkOrchid","j","reject",0,431
"1059","id0050",1,17,0,1,"AI","training_others",6,4,"DarkOrchid","f","accept",4,474
"1060","id0050",1,18,0,0,"AI","training_others",4,6,"DarkOrchid","f","accept",6,622
"1061","id0050",1,19,0,0,"AI","training_others",6,4,"DarkOrchid","f","accept",4,379
"1062","id0050",1,20,0,0,"AI","training_others",7,3,"DarkOrchid","j","reject",0,362
"1063","id0050",1,21,0,0,"human","training_others",7,3,"GoldenRod","j","reject",0,313
"1064","id0050",1,22,0,0,"AI","training_others",6,4,"DarkOrchid","f","accept",4,386
"1065","id0050",1,23,0,0,"human","training_others",5,5,"GoldenRod","f","accept",5,341
"1066","id0050",1,24,0,0,"AI","training_others",4,6,"DarkOrchid","f","accept",6,353
"1067","id0051",0,1,1,0,"practice","Practice",8,2,"black","j","reject",0,443
"1068","id0051",0,2,1,0,"practice","Practice",6,4,"black","f","accept",4,939
"1069","id0051",1,1,0,0,"human","training_others",8,2,"DarkOrchid","j","reject",0,56
"1070","id0051",1,2,0,0,"AI","training_others",7,3,"GoldenRod","j","reject",0,402
"1071","id0051",1,3,0,1,"human","training_others",7,3,"DarkOrchid","j","reject",0,320
"1072","id0051",1,4,0,0,"AI","training_others",4,6,"GoldenRod","f","accept",6,696
"1073","id0051",1,5,0,0,"human","training_others",4,6,"DarkOrchid","f","accept",6,501
"1074","id0051",1,6,0,0,"AI","training_others",6,4,"GoldenRod","j","reject",0,6192
"1075","id0051",1,7,0,0,"AI","training_others",5,5,"GoldenRod","f","accept",5,383
"1076","id0051",1,8,0,0,"AI","training_others",5,5,"GoldenRod","f","accept",5,1742
"1077","id0051",1,9,0,0,"human","training_others",8,2,"DarkOrchid","j","reject",0,2963
"1078","id0051",1,10,0,0,"human","training_others",4,6,"DarkOrchid","f","accept",6,13436
"1079","id0051",1,11,0,0,"AI","training_others",8,2,"GoldenRod","j","reject",0,3752
"1080","id0051",1,12,0,0,"AI","training_others",9,1,"GoldenRod","j","reject",0,4808
"1081","id0051",1,13,0,0,"AI","training_others",4,6,"GoldenRod","f","accept",6,5557
"1082","id0051",1,14,0,0,"human","training_others",5,5,"DarkOrchid","f","accept",5,8953
"1083","id0051",1,15,0,0,"human","training_others",9,1,"DarkOrchid","j","reject",0,465
"1084","id0051",1,16,0,0,"AI","training_others",6,4,"GoldenRod","j","reject",0,648
"1085","id0051",1,17,0,0,"AI","training_others",6,4,"GoldenRod","j","reject",0,1210
"1086","id0051",1,18,0,0,"AI","training_others",5,5,"GoldenRod","f","accept",5,759
"1087","id0051",1,19,0,0,"human","training_others",5,5,"DarkOrchid","f","accept",5,1227
"1088","id0051",1,20,0,0,"human","training_others",7,3,"DarkOrchid","j","reject",0,6521
"1089","id0051",1,21,0,0,"AI","training_others",4,6,"GoldenRod","f","accept",6,1132
"1090","id0051",1,22,0,0,"human","training_others",9,1,"DarkOrchid","j","reject",0,1569
"1091","id0051",1,23,0,0,"human","training_others",6,4,"DarkOrchid","f","accept",4,3771
"1092","id0051",1,24,0,0,"human","training_others",6,4,"DarkOrchid","f","accept",4,217
"1093","id0052",0,1,1,0,"practice","Practice",5,5,"black","f","accept",5,515
"1094","id0052",0,2,1,0,"practice","Practice",5,5,"black","f","accept",5,326
"1095","id0052",1,1,0,0,"human","control",8,2,"DarkOrchid","j","reject",0,199
"1096","id0052",1,2,0,0,"AI","control",4,6,"GoldenRod","f","accept",6,49
"1097","id0052",1,3,0,0,"AI","control",8,2,"GoldenRod","j","reject",0,466
"1098","id0052",1,4,0,0,"AI","control",6,4,"GoldenRod","j","reject",0,551
"1099","id0052",1,5,0,0,"human","control",6,4,"DarkOrchid","f","accept",4,30
"1100","id0052",1,6,0,0,"human","control",9,1,"DarkOrchid","j","reject",0,186
"1101","id0052",1,7,0,0,"AI","control",7,3,"GoldenRod","j","reject",0,1247
"1102","id0052",1,8,0,0,"AI","control",8,2,"GoldenRod","j","reject",0,23
"1103","id0052",1,9,0,0,"human","control",4,6,"DarkOrchid","f","accept",6,171
"1104","id0052",1,10,0,0,"human","control",5,5,"DarkOrchid","f","accept",5,430
"1105","id0052",1,11,0,0,"AI","control",9,1,"GoldenRod","j","reject",0,375
"1106","id0052",1,12,0,0,"human","control",6,4,"DarkOrchid","f","accept",4,197
"1107","id0052",1,13,0,0,"AI","control",6,4,"GoldenRod","f","accept",4,204
"1108","id0052",1,14,0,0,"AI","control",5,5,"GoldenRod","f","accept",5,392
"1109","id0052",1,15,0,0,"human","control",9,1,"DarkOrchid","j","reject",0,385
"1110","id0052",1,16,0,0,"AI","control",6,4,"GoldenRod","f","accept",4,69
"1111","id0052",1,17,0,0,"human","control",5,5,"DarkOrchid","f","accept",5,95
"1112","id0052",1,18,0,1,"AI","control",5,5,"GoldenRod","f","accept",5,256
"1113","id0052",1,19,0,0,"human","control",7,3,"DarkOrchid","j","reject",0,271
"1114","id0052",1,20,0,0,"human","control",7,3,"DarkOrchid","j","reject",0,25
"1115","id0052",1,21,0,0,"human","control",4,6,"DarkOrchid","f","accept",6,391
"1116","id0052",1,22,0,0,"AI","control",6,4,"GoldenRod","j","reject",0,364
"1117","id0052",1,23,0,0,"human","control",8,2,"DarkOrchid","j","reject",0,64
"1118","id0052",1,24,0,0,"AI","control",4,6,"GoldenRod","f","accept",6,275
"1119","id0054",0,1,1,0,"practice","Practice",10,0,"black","f","accept",0,1479
"1120","id0054",0,2,1,0,"practice","Practice",7,3,"black","j","reject",0,44
"1121","id0054",1,1,0,0,"human","control",5,5,"DarkOrchid","j","reject",0,238
"1122","id0054",1,2,0,0,"AI","control",5,5,"GoldenRod","f","accept",5,629
"1123","id0054",1,3,0,0,"AI","control",4,6,"GoldenRod","f","accept",6,874
"1124","id0054",1,4,0,1,"AI","control",9,1,"GoldenRod","j","reject",0,406
"1125","id0054",1,5,0,0,"human","control",7,3,"DarkOrchid","j","reject",0,1354
"1126","id0054",1,6,0,0,"human","control",9,1,"DarkOrchid","j","reject",0,885
"1127","id0054",1,7,0,0,"human","control",9,1,"DarkOrchid","j","reject",0,1842
"1128","id0054",1,8,0,0,"AI","control",6,4,"GoldenRod","f","accept",4,1061
"1129","id0054",1,9,0,0,"human","control",8,2,"DarkOrchid","j","reject",0,856
"1130","id0054",1,10,0,0,"AI","control",8,2,"GoldenRod","f","accept",2,241
"1131","id0054",1,11,0,0,"AI","control",9,1,"GoldenRod","j","reject",0,555
"1132","id0054",1,12,0,0,"human","control",5,5,"DarkOrchid","f","accept",5,790
"1133","id0054",1,13,0,0,"AI","control",5,5,"GoldenRod","f","accept",5,638
"1134","id0054",1,14,0,0,"AI","control",4,6,"GoldenRod","f","accept",6,774
"1135","id0054",1,15,0,0,"human","control",7,3,"DarkOrchid","f","accept",3,2481
"1136","id0054",1,16,0,0,"AI","control",5,5,"GoldenRod","f","accept",5,1750
"1137","id0054",1,17,0,0,"AI","control",7,3,"GoldenRod","j","reject",0,426
"1138","id0054",1,18,0,0,"human","control",6,4,"DarkOrchid","f","accept",4,709
"1139","id0054",1,19,0,0,"human","control",6,4,"DarkOrchid","f","accept",4,557
"1140","id0054",1,20,0,0,"human","control",4,6,"DarkOrchid","f","accept",6,1019
"1141","id0054",1,21,0,0,"AI","control",5,5,"GoldenRod","f","accept",5,477
"1142","id0054",1,22,0,0,"AI","control",7,3,"GoldenRod","j","reject",0,716
"1143","id0054",1,23,0,0,"human","control",8,2,"DarkOrchid","j","reject",0,1069
"1144","id0054",1,24,0,0,"human","control",4,6,"DarkOrchid","f","accept",6,1009
"1145","id0056",0,1,1,0,"practice","Practice",1,9,"black","f","accept",9,2904
"1146","id0056",0,2,1,0,"practice","Practice",4,6,"black","f","accept",6,1036
"1147","id0056",1,1,0,0,"AI","control",8,2,"DarkOrchid","j","reject",0,477
"1148","id0056",1,2,0,0,"human","control",7,3,"GoldenRod","f","accept",3,1152
"1149","id0056",1,3,0,0,"AI","control",4,6,"DarkOrchid","j","reject",0,416
"1150","id0056",1,4,0,0,"AI","control",5,5,"DarkOrchid","f","accept",5,431
"1151","id0056",1,5,0,0,"human","control",4,6,"GoldenRod","f","accept",6,468
"1152","id0056",1,6,0,0,"human","control",6,4,"GoldenRod","f","accept",4,327
"1153","id0056",1,7,0,0,"human","control",8,2,"GoldenRod","j","reject",0,372
"1154","id0056",1,8,0,0,"AI","control",6,4,"DarkOrchid","f","accept",4,401
"1155","id0056",1,9,0,0,"AI","control",5,5,"DarkOrchid","f","accept",5,513
"1156","id0056",1,10,0,0,"human","control",9,1,"GoldenRod","j","reject",0,387
"1157","id0056",1,11,0,0,"AI","control",7,3,"DarkOrchid","j","reject",0,805
"1158","id0056",1,12,0,0,"human","control",8,2,"GoldenRod","j","reject",0,451
"1159","id0056",1,13,0,0,"human","control",4,6,"GoldenRod","f","accept",6,495
"1160","id0056",1,14,0,0,"human","control",5,5,"GoldenRod","f","accept",5,542
"1161","id0056",1,15,0,0,"AI","control",6,4,"DarkOrchid","f","accept",4,528
"1162","id0056",1,16,0,0,"human","control",9,1,"GoldenRod","j","reject",0,418
"1163","id0056",1,17,0,0,"human","control",6,4,"GoldenRod","f","accept",4,494
"1164","id0056",1,18,0,0,"AI","control",7,3,"DarkOrchid","f","accept",3,938
"1165","id0056",1,19,0,0,"human","control",7,3,"GoldenRod","f","accept",3,442
"1166","id0056",1,20,0,1,"AI","control",5,5,"DarkOrchid","f","accept",5,471
"1167","id0056",1,21,0,0,"AI","control",4,6,"DarkOrchid","f","accept",6,431
"1168","id0056",1,22,0,0,"human","control",5,5,"GoldenRod","f","accept",5,408
"1169","id0056",1,23,0,0,"AI","control",9,1,"DarkOrchid","j","reject",0,410
"1170","id0056",1,24,0,0,"AI","control",5,5,"DarkOrchid","f","accept",5,375
"1171","id0057",0,1,1,0,"practice","Practice",3,7,"black","f","accept",7,778
"1172","id0057",0,2,1,0,"practice","Practice",10,0,"black","j","reject",0,533
"1173","id0057",1,1,0,0,"human","control",7,3,"DarkOrchid","f","accept",3,491
"1174","id0057",1,2,0,0,"AI","control",4,6,"GoldenRod","f","accept",6,400
"1175","id0057",1,3,0,0,"human","control",6,4,"DarkOrchid","f","accept",4,370
"1176","id0057",1,4,0,0,"human","control",9,1,"DarkOrchid","j","reject",0,502
"1177","id0057",1,5,0,0,"AI","control",5,5,"GoldenRod","f","accept",5,2935
"1178","id0057",1,6,0,0,"AI","control",5,5,"GoldenRod","f","accept",5,344
"1179","id0057",1,7,0,0,"human","control",8,2,"DarkOrchid","j","reject",0,1759
"1180","id0057",1,8,0,0,"human","control",4,6,"DarkOrchid","f","accept",6,421
"1181","id0057",1,9,0,0,"human","control",4,6,"DarkOrchid","f","accept",6,858
"1182","id0057",1,10,0,0,"AI","control",8,2,"GoldenRod","j","reject",0,242
"1183","id0057",1,11,0,0,"human","control",6,4,"DarkOrchid","f","accept",4,296
"1184","id0057",1,12,0,0,"human","control",5,5,"DarkOrchid","f","accept",5,337
"1185","id0057",1,13,0,0,"AI","control",7,3,"GoldenRod","f","accept",3,200
"1186","id0057",1,14,0,1,"human","control",5,5,"DarkOrchid","f","accept",5,292
"1187","id0057",1,15,0,0,"AI","control",7,3,"GoldenRod","f","accept",3,6275
"1188","id0057",1,16,0,0,"human","control",9,1,"DarkOrchid","j","reject",0,794
"1189","id0057",1,17,0,0,"AI","control",6,4,"GoldenRod","f","accept",4,345
"1190","id0057",1,18,0,0,"AI","control",6,4,"GoldenRod","f","accept",4,431
"1191","id0057",1,19,0,0,"AI","control",9,1,"GoldenRod","j","reject",0,609
"1192","id0057",1,20,0,0,"human","control",7,3,"DarkOrchid","f","accept",3,82
"1193","id0057",1,21,0,0,"AI","control",5,5,"GoldenRod","f","accept",5,61
"1194","id0057",1,22,0,0,"human","control",8,2,"DarkOrchid","j","reject",0,386
"1195","id0057",1,23,0,0,"AI","control",4,6,"GoldenRod","f","accept",6,409
"1196","id0057",1,24,0,0,"AI","control",5,5,"GoldenRod","f","accept",5,284
"1197","id0058",0,1,1,0,"practice","Practice",5,5,"black","f","accept",5,2085
"1198","id0058",0,2,1,0,"practice","Practice",4,6,"black","f","accept",6,583
"1199","id0058",1,1,0,0,"human","training_self",8,2,"GoldenRod","f","accept",2,1704
"1200","id0058",1,2,0,0,"human","training_self",8,2,"GoldenRod","f","accept",2,584
"1201","id0058",1,3,0,0,"human","training_self",7,3,"GoldenRod","f","accept",3,787
"1202","id0058",1,4,0,0,"human","training_self",5,5,"GoldenRod","f","accept",5,832
"1203","id0058",1,5,0,0,"AI","training_self",6,4,"DarkOrchid","f","accept",4,756
"1204","id0058",1,6,0,0,"human","training_self",9,1,"GoldenRod","f","accept",1,3226
"1205","id0058",1,7,0,0,"AI","training_self",4,6,"DarkOrchid","f","accept",6,561
"1206","id0058",1,8,0,0,"human","training_self",4,6,"GoldenRod","f","accept",6,657
"1207","id0058",1,9,0,0,"human","training_self",9,1,"GoldenRod","f","accept",1,770
"1208","id0058",1,10,0,0,"human","training_self",7,3,"GoldenRod","f","accept",3,1031
"1209","id0058",1,11,0,0,"AI","training_self",7,3,"DarkOrchid","f","accept",3,739
"1210","id0058",1,12,0,0,"human","training_self",5,5,"GoldenRod","f","accept",5,902
"1211","id0058",1,13,0,0,"human","training_self",6,4,"GoldenRod","f","accept",4,527
"1212","id0058",1,14,0,0,"AI","training_self",9,1,"DarkOrchid","f","accept",1,764
"1213","id0058",1,15,0,0,"AI","training_self",5,5,"DarkOrchid","f","accept",5,763
"1214","id0058",1,16,0,0,"AI","training_self",8,2,"DarkOrchid","f","accept",2,1041
"1215","id0058",1,17,0,0,"human","training_self",6,4,"GoldenRod","f","accept",4,724
"1216","id0058",1,18,0,0,"human","training_self",4,6,"GoldenRod","f","accept",6,639
"1217","id0058",1,19,0,0,"AI","training_self",5,5,"DarkOrchid","f","accept",5,561
"1218","id0058",1,20,0,1,"AI","training_self",8,2,"DarkOrchid","f","accept",2,634
"1219","id0058",1,21,0,0,"AI","training_self",7,3,"DarkOrchid","f","accept",3,717
"1220","id0058",1,22,0,0,"AI","training_self",5,5,"DarkOrchid","f","accept",5,491
"1221","id0058",1,23,0,0,"AI","training_self",5,5,"DarkOrchid","f","accept",5,560
"1222","id0058",1,24,0,0,"AI","training_self",7,3,"DarkOrchid","f","accept",3,593
"1223","id0059",0,1,1,0,"practice","Practice",7,3,"black","j","reject",0,859
"1224","id0059",0,2,1,0,"practice","Practice",3,7,"black","f","accept",7,574
"1225","id0059",1,1,0,0,"human","training_self",4,6,"GoldenRod","f","accept",6,741
"1226","id0059",1,2,0,0,"AI","training_self",8,2,"DarkOrchid","j","reject",0,522
"1227","id0059",1,3,0,0,"human","training_self",8,2,"GoldenRod","j","reject",0,293
"1228","id0059",1,4,0,0,"AI","training_self",7,3,"DarkOrchid","j","reject",0,653
"1229","id0059",1,5,0,0,"human","training_self",7,3,"GoldenRod","j","reject",0,598
"1230","id0059",1,6,0,0,"human","training_self",8,2,"GoldenRod","j","reject",0,381
"1231","id0059",1,7,0,0,"human","training_self",6,4,"GoldenRod","f","accept",4,421
"1232","id0059",1,8,0,0,"human","training_self",9,1,"GoldenRod","j","reject",0,549
"1233","id0059",1,9,0,0,"AI","training_self",6,4,"DarkOrchid","f","accept",4,1457
"1234","id0059",1,10,0,0,"AI","training_self",5,5,"DarkOrchid","f","accept",5,465
"1235","id0059",1,11,0,0,"human","training_self",4,6,"GoldenRod","f","accept",6,503
"1236","id0059",1,12,0,0,"AI","training_self",4,6,"DarkOrchid","f","accept",6,516
"1237","id0059",1,13,0,0,"AI","training_self",4,6,"DarkOrchid","f","accept",6,570
"1238","id0059",1,14,0,0,"AI","training_self",6,4,"DarkOrchid","f","accept",4,1002
"1239","id0059",1,15,0,0,"AI","training_self",4,6,"DarkOrchid","f","accept",6,422
