"","id","block","trial_number","practice_trial","random_trial","opponent","training_condition","proposer_offer","receiver_offer","color","response_key","response","outcome","reaction_time"
"1","id0001",0,1,1,0,"practice","Practice",5,5,"black","f","accept",5,141
"2","id0001",0,2,1,0,"practice","Practice",2,8,"black","f","accept",8,580
"3","id0001",1,1,0,0,"AI","control",7,3,"Orange","f","accept",3,249
"4","id0001",1,2,0,0,"AI","control",4,6,"Orange","f","accept",6,388
"5","id0001",1,3,0,0,"AI","control",7,3,"Orange","f","accept",3,1918
"6","id0001",1,4,0,0,"AI","control",6,4,"Orange","f","accept",4,872
"7","id0001",1,5,0,0,"human","control",8,2,"CornflowerBlue","f","accept",2,882
"8","id0001",1,6,0,0,"AI","control",9,1,"Orange","f","accept",1,506
"9","id0001",1,7,0,0,"AI","control",6,4,"Orange","f","accept",4,412
"10","id0001",1,8,0,0,"AI","control",5,5,"Orange","f","accept",5,398
"11","id0001",1,9,0,0,"human","control",6,4,"CornflowerBlue","f","accept",4,368
"12","id0001",1,10,0,0,"human","control",8,2,"CornflowerBlue","f","accept",2,526
"13","id0001",1,11,0,0,"AI","control",4,6,"Orange","f","accept",6,498
"14","id0001",1,12,0,0,"human","control",7,3,"CornflowerBlue","f","accept",3,382
"15","id0001",1,13,0,0,"AI","control",8,2,"Orange","f","accept",2,410
"16","id0001",1,14,0,0,"AI","control",8,2,"Orange","f","accept",2,421
"17","id0001",1,15,0,0,"human","control",7,3,"CornflowerBlue","f","accept",3,442
"18","id0001",1,16,0,0,"AI","control",5,5,"Orange","f","accept",5,420
"19","id0001",1,17,0,0,"human","control",5,5,"CornflowerBlue","f","accept",5,593
"20","id0001",1,18,0,0,"AI","control",9,1,"Orange","f","accept",1,605
"21","id0001",1,19,0,0,"human","control",6,4,"CornflowerBlue","f","accept",4,356
"22","id0001",1,20,0,0,"human","control",4,6,"CornflowerBlue","f","accept",6,446
"23","id0001",1,21,0,0,"human","control",9,1,"CornflowerBlue","f","accept",1,453
"24","id0001",1,22,0,1,"human","control",5,5,"CornflowerBlue","f","accept",5,402
"25","id0001",1,23,0,0,"human","control",9,1,"CornflowerBlue","f","accept",1,411
"26","id0001",1,24,0,0,"human","control",4,6,"CornflowerBlue","f","accept",6,711
"27","id0002",0,1,1,0,"practice","Practice",1,9,"black","f","accept",9,660
"28","id0002",0,2,1,0,"practice","Practice",9,1,"black","j","reject",0,1519
"29","id0002",1,1,0,0,"AI","training_others",7,3,"Orange","j","reject",0,1441
"30","id0002",1,2,0,0,"human","training_others",8,2,"CornflowerBlue","j","reject",0,172
"31","id0002",1,3,0,0,"human","training_others",7,3,"CornflowerBlue","j","reject",0,153
"32","id0002",1,4,0,1,"human","training_others",9,1,"CornflowerBlue","j","reject",0,143
"33","id0002",1,5,0,0,"AI","training_others",9,1,"Orange","j","reject",0,50
"34","id0002",1,6,0,0,"human","training_others",8,2,"CornflowerBlue","j","reject",0,7
"35","id0002",1,7,0,0,"human","training_others",4,6,"CornflowerBlue","f","accept",6,268
"36","id0002",1,8,0,0,"AI","training_others",9,1,"Orange","j","reject",0,301
"37","id0002",1,9,0,0,"AI","training_others",6,4,"Orange","f","accept",4,352
"38","id0002",1,10,0,0,"AI","training_others",4,6,"Orange","f","accept",6,242
"39","id0002",1,11,0,0,"AI","training_others",4,6,"Orange","f","accept",6,247
"40","id0002",1,12,0,0,"human","training_others",6,4,"CornflowerBlue","f","accept",4,280
"41","id0002",1,13,0,0,"AI","training_others",5,5,"Orange","f","accept",5,157
"42","id0002",1,14,0,0,"human","training_others",4,6,"CornflowerBlue","f","accept",6,152
"43","id0002",1,15,0,0,"AI","training_others",8,2,"Orange","j","reject",0,117
"44","id0002",1,16,0,0,"human","training_others",5,5,"CornflowerBlue","f","accept",5,235
"45","id0002",1,17,0,0,"AI","training_others",6,4,"Orange","f","accept",4,115
"46","id0002",1,18,0,0,"human","training_others",6,4,"CornflowerBlue","f","accept",4,124
"47","id0002",1,19,0,0,"AI","training_others",5,5,"Orange","f","accept",5,306
"48","id0002",1,20,0,0,"AI","training_others",8,2,"Orange","j","reject",0,296
"49","id0002",1,21,0,0,"AI","training_others",7,3,"Orange","j","reject",0,87
"50","id0002",1,22,0,0,"human","training_others",7,3,"CornflowerBlue","j","reject",0,15
"51","id0002",1,23,0,0,"human","training_others",5,5,"CornflowerBlue","f","accept",5,146
"52","id0002",1,24,0,0,"human","training_others",9,1,"CornflowerBlue","j","reject",0,25
"53","id0003",0,1,1,0,"practice","Practice",9,1,"black","j","reject",0,4484
"54","id0003",0,2,1,0,"practice","Practice",6,4,"black","j","reject",0,297
"55","id0003",1,1,0,0,"AI","control",8,2,"Orange","j","reject",0,511
"56","id0003",1,2,0,0,"AI","control",9,1,"Orange","j","reject",0,113
"57","id0003",1,3,0,0,"AI","control",9,1,"Orange","j","reject",0,152
"58","id0003",1,4,0,0,"human","control",5,5,"CornflowerBlue","f","accept",5,47
"59","id0003",1,5,0,0,"human","control",6,4,"CornflowerBlue","f","accept",4,111
"60","id0003",1,6,0,0,"AI","control",4,6,"Orange","f","accept",6,286
"61","id0003",1,7,0,0,"human","control",9,1,"CornflowerBlue","j","reject",0,278
"62","id0003",1,8,0,1,"human","control",7,3,"CornflowerBlue","j","reject",0,1060
"63","id0003",1,9,0,0,"human","control",4,6,"CornflowerBlue","f","accept",6,1360
"64","id0003",1,10,0,0,"AI","control",7,3,"Orange","j","reject",0,4823
"65","id0003",1,11,0,0,"AI","control",8,2,"Orange","j","reject",0,11430
"66","id0003",1,12,0,0,"human","control",4,6,"CornflowerBlue","f","accept",6,3275
"67","id0003",1,13,0,0,"human","control",8,2,"CornflowerBlue","j","reject",0,2517
"68","id0003",1,14,0,0,"AI","control",5,5,"Orange","f","accept",5,11
"69","id0003",1,15,0,0,"human","control",6,4,"CornflowerBlue","f","accept",4,105
"70","id0003",1,16,0,0,"human","control",7,3,"CornflowerBlue","j","reject",0,4287
"71","id0003",1,17,0,0,"human","control",8,2,"CornflowerBlue","j","reject",0,3319
"72","id0003",1,18,0,0,"AI","control",6,4,"Orange","f","accept",4,5081
"73","id0003",1,19,0,0,"AI","control",5,5,"Orange","f","accept",5,1139
"74","id0003",1,20,0,0,"AI","control",7,3,"Orange","j","reject",0,399
"75","id0003",1,21,0,0,"AI","control",6,4,"Orange","f","accept",4,5982
"76","id0003",1,22,0,0,"AI","control",4,6,"Orange","f","accept",6,3740
"77","id0003",1,23,0,0,"human","control",9,1,"CornflowerBlue","j","reject",0,7887
"78","id0003",1,24,0,0,"human","control",5,5,"CornflowerBlue","f","accept",5,12
"79","id0004",0,1,1,0,"practice","Practice",7,3,"black","f","accept",3,1908
"80","id0004",0,2,1,0,"practice","Practice",3,7,"black","f","accept",7,511
"81","id0004",1,1,0,0,"AI","training_others",7,3,"Orange","f","accept",3,447
"82","id0004",1,2,0,0,"AI","training_others",9,1,"Orange","f","accept",1,338
"83","id0004",1,3,0,0,"AI","training_others",8,2,"Orange","f","accept",2,426
"84","id0004",1,4,0,1,"human","training_others",4,6,"CornflowerBlue","f","accept",6,619
"85","id0004",1,5,0,0,"human","training_others",5,5,"CornflowerBlue","f","accept",5,457
"86","id0004",1,6,0,0,"AI","training_others",7,3,"Orange","f","accept",3,429
"87","id0004",1,7,0,0,"human","training_others",9,1,"CornflowerBlue","f","accept",1,518
"88","id0004",1,8,0,0,"AI","training_others",5,5,"Orange","f","accept",5,394
"89","id0004",1,9,0,0,"human","training_others",6,4,"CornflowerBlue","f","accept",4,346
"90","id0004",1,10,0,0,"AI","training_others",5,5,"Orange","f","accept",5,436
"91","id0004",1,11,0,0,"human","training_others",5,5,"CornflowerBlue","f","accept",5,509
"92","id0004",1,12,0,0,"AI","training_others",6,4,"Orange","f","accept",4,393
"93","id0004",1,13,0,0,"human","training_others",8,2,"CornflowerBlue","f","accept",2,433
"94","id0004",1,14,0,0,"AI","training_others",9,1,"Orange","f","accept",1,454
"95","id0004",1,15,0,0,"human","training_others",9,1,"CornflowerBlue","f","accept",1,508
"96","id0004",1,16,0,0,"AI","training_others",6,4,"Orange","f","accept",4,420
"97","id0004",1,17,0,0,"human","training_others",4,6,"CornflowerBlue","f","accept",6,482
"98","id0004",1,18,0,0,"AI","training_others",4,6,"Orange","f","accept",6,450
"99","id0004",1,19,0,0,"AI","training_others",4,6,"Orange","f","accept",6,528
"100","id0004",1,20,0,0,"AI","training_others",8,2,"Orange","f","accept",2,589
"101","id0004",1,21,0,0,"human","training_others",8,2,"CornflowerBlue","f","accept",2,472
"102","id0004",1,22,0,0,"human","training_others",7,3,"CornflowerBlue","f","accept",3,540
"103","id0004",1,23,0,0,"human","training_others",7,3,"CornflowerBlue","f","accept",3,444
"104","id0004",1,24,0,0,"human","training_others",6,4,"CornflowerBlue","f","accept",4,493
"105","id0005",0,1,1,0,"practice","Practice",10,0,"black","j","reject",0,2747
"106","id0005",0,2,1,0,"practice","Practice",9,1,"black","j","reject",0,604
"107","id0005",1,1,0,0,"AI","control",6,4,"Orange","f","accept",4,2973
"108","id0005",1,2,0,0,"human","control",8,2,"CornflowerBlue","j","reject",0,778
"109","id0005",1,3,0,0,"AI","control",8,2,"Orange","j","reject",0,731
"110","id0005",1,4,0,0,"AI","control",5,5,"Orange","f","accept",5,254
"111","id0005",1,5,0,0,"AI","control",7,3,"Orange","j","reject",0,438
"112","id0005",1,6,0,0,"AI","control",4,6,"Orange","f","accept",6,325
"113","id0005",1,7,0,1,"human","control",6,4,"CornflowerBlue","f","accept",4,662
"114","id0005",1,8,0,0,"AI","control",6,4,"Orange","f","accept",4,394
"115","id0005",1,9,0,0,"human","control",4,6,"CornflowerBlue","f","accept",6,403
"116","id0005",1,10,0,0,"human","control",7,3,"CornflowerBlue","j","reject",0,601
"117","id0005",1,11,0,0,"human","control",6,4,"CornflowerBlue","f","accept",4,309
"118","id0005",1,12,0,0,"AI","control",4,6,"Orange","f","accept",6,415
"119","id0005",1,13,0,0,"AI","control",9,1,"Orange","j","reject",0,427
"120","id0005",1,14,0,0,"AI","control",9,1,"Orange","j","reject",0,398
"121","id0005",1,15,0,0,"AI","control",7,3,"Orange","j","reject",0,473
"122","id0005",1,16,0,0,"AI","control",8,2,"Orange","j","reject",0,287
"123","id0005",1,17,0,0,"AI","control",5,5,"Orange","f","accept",5,538
"124","id0005",1,18,0,0,"human","control",7,3,"CornflowerBlue","j","reject",0,562
"125","id0005",1,19,0,0,"human","control",5,5,"CornflowerBlue","f","accept",5,379
"126","id0005",1,20,0,0,"human","control",4,6,"CornflowerBlue","f","accept",6,346
"127","id0005",1,21,0,0,"human","control",9,1,"CornflowerBlue","j","reject",0,441
"128","id0005",1,22,0,0,"human","control",5,5,"CornflowerBlue","f","accept",5,296
"129","id0005",1,23,0,0,"human","control",9,1,"CornflowerBlue","j","reject",0,610
"130","id0005",1,24,0,0,"human","control",8,2,"CornflowerBlue","j","reject",0,354
"131","id0006",0,1,1,0,"practice","Practice",5,5,"black","f","accept",5,3490
"132","id0006",0,2,1,0,"practice","Practice",10,0,"black","f","accept",0,690
"133","id0006",1,1,0,0,"AI","control",7,3,"Orange","f","accept",3,1348
"134","id0006",1,2,0,0,"AI","control",9,1,"Orange","f","accept",1,732
"135","id0006",1,3,0,0,"human","control",8,2,"CornflowerBlue","f","accept",2,586
"136","id0006",1,4,0,0,"human","control",8,2,"CornflowerBlue","f","accept",2,531
"137","id0006",1,5,0,0,"AI","control",8,2,"Orange","f","accept",2,404
"138","id0006",1,6,0,0,"human","control",4,6,"CornflowerBlue","f","accept",6,111
"139","id0006",1,7,0,0,"human","control",6,4,"CornflowerBlue","f","accept",4,1541
"140","id0006",1,8,0,0,"AI","control",4,6,"Orange","f","accept",6,936
"141","id0006",1,9,0,0,"AI","control",5,5,"Orange","f","accept",5,449
"142","id0006",1,10,0,0,"human","control",9,1,"CornflowerBlue","j","reject",0,565
"143","id0006",1,11,0,0,"human","control",6,4,"CornflowerBlue","f","accept",4,418
"144","id0006",1,12,0,0,"human","control",7,3,"CornflowerBlue","j","reject",0,929
"145","id0006",1,13,0,0,"human","control",7,3,"CornflowerBlue","j","reject",0,496
"146","id0006",1,14,0,0,"human","control",9,1,"CornflowerBlue","j","reject",0,466
"147","id0006",1,15,0,0,"human","control",4,6,"CornflowerBlue","f","accept",6,352
"148","id0006",1,16,0,0,"AI","control",9,1,"Orange","j","reject",0,1210
"149","id0006",1,17,0,0,"AI","control",6,4,"Orange","f","accept",4,457
"150","id0006",1,18,0,0,"AI","control",7,3,"Orange","f","accept",3,4950
"151","id0006",1,19,0,0,"AI","control",8,2,"Orange","j","reject",0,472
"152","id0006",1,20,0,0,"AI","control",5,5,"Orange","f","accept",5,470
"153","id0006",1,21,0,0,"AI","control",6,4,"Orange","f","accept",4,425
"154","id0006",1,22,0,0,"human","control",5,5,"CornflowerBlue","f","accept",5,414
"155","id0006",1,23,0,0,"human","control",5,5,"CornflowerBlue","f","accept",5,580
"156","id0006",1,24,0,1,"AI","control",4,6,"Orange","f","accept",6,994
"157","id0007",0,1,1,0,"practice","Practice",5,5,"black","f","accept",5,661
"158","id0007",0,2,1,0,"practice","Practice",2,8,"black","f","accept",8,714
"159","id0007",1,1,0,0,"human","control",4,6,"CornflowerBlue","f","accept",6,698
"160","id0007",1,2,0,0,"human","control",7,3,"CornflowerBlue","f","accept",3,620
"161","id0007",1,3,0,0,"AI","control",8,2,"Orange","j","reject",0,837
"162","id0007",1,4,0,1,"AI","control",4,6,"Orange","f","accept",6,188
"163","id0007",1,5,0,0,"human","control",8,2,"CornflowerBlue","f","accept",2,404
"164","id0007",1,6,0,0,"AI","control",9,1,"Orange","j","reject",0,455
"165","id0007",1,7,0,0,"human","control",9,1,"CornflowerBlue","f","accept",1,1007
"166","id0007",1,8,0,0,"AI","control",6,4,"Orange","j","reject",0,846
"167","id0007",1,9,0,0,"AI","control",7,3,"Orange","j","reject",0,829
"168","id0007",1,10,0,0,"human","control",4,6,"CornflowerBlue","f","accept",6,284
"169","id0007",1,11,0,0,"human","control",6,4,"CornflowerBlue","f","accept",4,333
"170","id0007",1,12,0,0,"human","control",7,3,"CornflowerBlue","f","accept",3,732
"171","id0007",1,13,0,0,"AI","control",5,5,"Orange","f","accept",5,320
"172","id0007",1,14,0,0,"AI","control",7,3,"Orange","j","reject",0,405
"173","id0007",1,15,0,0,"AI","control",8,2,"Orange","j","reject",0,375
"174","id0007",1,16,0,0,"human","control",5,5,"CornflowerBlue","f","accept",5,404
"175","id0007",1,17,0,0,"human","control",5,5,"CornflowerBlue","f","accept",5,471
"176","id0007",1,18,0,0,"human","control",9,1,"CornflowerBlue","f","accept",1,540
"177","id0007",1,19,0,0,"AI","control",6,4,"Orange","j","reject",0,430
"178","id0007",1,20,0,0,"AI","control",5,5,"Orange","f","accept",5,598
"179","id0007",1,21,0,0,"human","control",8,2,"CornflowerBlue","f","accept",2,404
"180","id0007",1,22,0,0,"AI","control",4,6,"Orange","f","accept",6,588
"181","id0007",1,23,0,0,"human","control",6,4,"CornflowerBlue","f","accept",4,549
"182","id0007",1,24,0,0,"AI","control",9,1,"Orange","j","reject",0,1254
"183","id0008",0,1,1,0,"practice","Practice",9,1,"black","j","reject",0,568
"184","id0008",0,2,1,0,"practice","Practice",6,4,"black","f","accept",4,221
"185","id0008",1,1,0,0,"AI","control",5,5,"Orange","f","accept",5,446
"186","id0008",1,2,0,0,"human","control",7,3,"CornflowerBlue","f","accept",3,221
"187","id0008",1,3,0,0,"AI","control",4,6,"Orange","f","accept",6,313
"188","id0008",1,4,0,0,"human","control",4,6,"CornflowerBlue","f","accept",6,250
"189","id0008",1,5,0,1,"AI","control",7,3,"Orange","j","reject",0,306
"190","id0008",1,6,0,0,"AI","control",8,2,"Orange","j","reject",0,338
"191","id0008",1,7,0,0,"human","control",6,4,"CornflowerBlue","f","accept",4,2122
"192","id0008",1,8,0,0,"human","control",9,1,"CornflowerBlue","j","reject",0,224
"193","id0008",1,9,0,0,"human","control",6,4,"CornflowerBlue","f","accept",4,291
"194","id0008",1,10,0,0,"human","control",9,1,"CornflowerBlue","j","reject",0,371
"195","id0008",1,11,0,0,"AI","control",6,4,"Orange","j","reject",0,1017
"196","id0008",1,12,0,0,"human","control",8,2,"CornflowerBlue","j","reject",0,73
"197","id0008",1,13,0,0,"AI","control",7,3,"Orange","j","reject",0,118
"198","id0008",1,14,0,0,"human","control",4,6,"CornflowerBlue","f","accept",6,746
"199","id0008",1,15,0,0,"AI","control",9,1,"Orange","j","reject",0,232
"200","id0008",1,16,0,0,"AI","control",5,5,"Orange","f","accept",5,140
"201","id0008",1,17,0,0,"human","control",7,3,"CornflowerBlue","j","reject",0,117
"202","id0008",1,18,0,0,"AI","control",9,1,"Orange","j","reject",0,160
"203","id0008",1,19,0,0,"human","control",8,2,"CornflowerBlue","j","reject",0,245
"204","id0008",1,20,0,0,"AI","control",6,4,"Orange","f","accept",4,190
"205","id0008",1,21,0,0,"AI","control",4,6,"Orange","f","accept",6,387
"206","id0008",1,22,0,0,"human","control",5,5,"CornflowerBlue","f","accept",5,114
"207","id0008",1,23,0,0,"AI","control",8,2,"Orange","j","reject",0,691
"208","id0008",1,24,0,0,"human","control",5,5,"CornflowerBlue","f","accept",5,237
"209","id0009",0,1,1,0,"practice","Practice",4,6,"black","f","accept",6,2218
"210","id0009",0,2,1,0,"practice","Practice",9,1,"black","f","accept",1,589
"211","id0009",1,1,0,0,"human","control",9,1,"CornflowerBlue","f","accept",1,1721
"212","id0009",1,2,0,0,"human","control",4,6,"CornflowerBlue","f","accept",6,466
"213","id0009",1,3,0,0,"AI","control",5,5,"Orange","f","accept",5,407
"214","id0009",1,4,0,0,"human","control",9,1,"CornflowerBlue","f","accept",1,703
"215","id0009",1,5,0,0,"AI","control",7,3,"Orange","f","accept",3,615
"216","id0009",1,6,0,0,"human","control",4,6,"CornflowerBlue","f","accept",6,736
"217","id0009",1,7,0,0,"AI","control",6,4,"Orange","f","accept",4,704
"218","id0009",1,8,0,0,"human","control",6,4,"CornflowerBlue","f","accept",4,494
"219","id0009",1,9,0,0,"AI","control",9,1,"Orange","f","accept",1,533
"220","id0009",1,10,0,0,"human","control",8,2,"CornflowerBlue","f","accept",2,870
"221","id0009",1,11,0,0,"AI","control",5,5,"Orange","f","accept",5,4233
"222","id0009",1,12,0,0,"AI","control",4,6,"Orange","f","accept",6,628
"223","id0009",1,13,0,0,"human","control",8,2,"CornflowerBlue","f","accept",2,1734
"224","id0009",1,14,0,0,"human","control",5,5,"CornflowerBlue","f","accept",5,1631
"225","id0009",1,15,0,0,"human","control",7,3,"CornflowerBlue","f","accept",3,420
"226","id0009",1,16,0,0,"AI","control",8,2,"Orange","f","accept",2,463
"227","id0009",1,17,0,1,"human","control",7,3,"CornflowerBlue","f","accept",3,442
"228","id0009",1,18,0,0,"human","control",6,4,"CornflowerBlue","f","accept",4,415
"229","id0009",1,19,0,0,"AI","control",8,2,"Orange","f","accept",2,485
"230","id0009",1,20,0,0,"AI","control",7,3,"Orange","f","accept",3,301
"231","id0009",1,21,0,0,"human","control",5,5,"CornflowerBlue","f","accept",5,420
"232","id0009",1,22,0,0,"AI","control",6,4,"Orange","f","accept",4,324
"233","id0009",1,23,0,0,"AI","control",9,1,"Orange","f","accept",1,909
"234","id0009",1,24,0,0,"AI","control",4,6,"Orange","f","accept",6,412
"235","id0010",0,1,1,0,"practice","Practice",3,7,"black","f","accept",7,1755
"236","id0010",0,2,1,0,"practice","Practice",6,4,"black","f","accept",4,434
"237","id0010",1,1,0,0,"human","training_others",6,4,"Orange","f","accept",4,446
"238","id0010",1,2,0,0,"human","training_others",4,6,"Orange","f","accept",6,265
"239","id0010",1,3,0,0,"human","training_others",7,3,"Orange","f","accept",3,471
"240","id0010",1,4,0,0,"AI","training_others",8,2,"CornflowerBlue","j","reject",0,483
"241","id0010",1,5,0,0,"AI","training_others",9,1,"CornflowerBlue","j","reject",0,435
"242","id0010",1,6,0,0,"AI","training_others",5,5,"CornflowerBlue","f","accept",5,268
"243","id0010",1,7,0,0,"human","training_others",6,4,"Orange","f","accept",4,371
"244","id0010",1,8,0,0,"human","training_others",4,6,"Orange","f","accept",6,333
"245","id0010",1,9,0,0,"human","training_others",8,2,"Orange","j","reject",0,421
"246","id0010",1,10,0,0,"AI","training_others",7,3,"CornflowerBlue","f","accept",3,411
"247","id0010",1,11,0,0,"human","training_others",5,5,"Orange","f","accept",5,391
"248","id0010",1,12,0,0,"AI","training_others",4,6,"CornflowerBlue","f","accept",6,19106
"249","id0010",1,13,0,0,"human","training_others",7,3,"Orange","f","accept",3,329
"250","id0010",1,14,0,0,"AI","training_others",4,6,"CornflowerBlue","f","accept",6,438
"251","id0010",1,15,0,0,"human","training_others",5,5,"Orange","f","accept",5,339
"252","id0010",1,16,0,0,"AI","training_others",9,1,"CornflowerBlue","j","reject",0,317
"253","id0010",1,17,0,1,"human","training_others",9,1,"Orange","j","reject",0,290
"254","id0010",1,18,0,0,"human","training_others",9,1,"Orange","j","reject",0,278
"255","id0010",1,19,0,0,"AI","training_others",5,5,"CornflowerBlue","f","accept",5,318
"256","id0010",1,20,0,0,"AI","training_others",8,2,"CornflowerBlue","j","reject",0,410
"257","id0010",1,21,0,0,"AI","training_others",7,3,"CornflowerBlue","f","accept",3,327
"258","id0010",1,22,0,0,"human","training_others",8,2,"Orange","j","reject",0,355
"259","id0010",1,23,0,0,"AI","training_others",6,4,"CornflowerBlue","f","accept",4,303
"260","id0010",1,24,0,0,"AI","training_others",6,4,"CornflowerBlue","f","accept",4,368
"261","id0011",0,1,1,0,"practice","Practice",10,0,"black","f","accept",0,51
"262","id0011",0,2,1,0,"practice","Practice",7,3,"black","f","accept",3,765
"263","id0011",1,1,0,0,"AI","training_others",9,1,"Orange","f","accept",1,783
"264","id0011",1,2,0,0,"human","training_others",7,3,"CornflowerBlue","f","accept",3,776
"265","id0011",1,3,0,0,"human","training_others",6,4,"CornflowerBlue","f","accept",4,411
"266","id0011",1,4,0,0,"human","training_others",4,6,"CornflowerBlue","j","reject",0,1082
"267","id0011",1,5,0,0,"AI","training_others",5,5,"Orange","f","accept",5,774
"268","id0011",1,6,0,1,"AI","training_others",7,3,"Orange","f","accept",3,346
"269","id0011",1,7,0,0,"human","training_others",9,1,"CornflowerBlue","f","accept",1,995
"270","id0011",1,8,0,0,"AI","training_others",6,4,"Orange","f","accept",4,2240
"271","id0011",1,9,0,0,"AI","training_others",4,6,"Orange","j","reject",0,1388
"272","id0011",1,10,0,0,"human","training_others",7,3,"CornflowerBlue","f","accept",3,396
"273","id0011",1,11,0,0,"human","training_others",5,5,"CornflowerBlue","f","accept",5,1037
"274","id0011",1,12,0,0,"AI","training_others",8,2,"Orange","f","accept",2,437
"275","id0011",1,13,0,0,"human","training_others",8,2,"CornflowerBlue","f","accept",2,475
"276","id0011",1,14,0,0,"human","training_others",8,2,"CornflowerBlue","f","accept",2,1400
"277","id0011",1,15,0,0,"AI","training_others",7,3,"Orange","f","accept",3,390
"278","id0011",1,16,0,0,"AI","training_others",8,2,"Orange","f","accept",2,562
"279","id0011",1,17,0,0,"AI","training_others",6,4,"Orange","f","accept",4,920
"280","id0011",1,18,0,0,"AI","training_others",5,5,"Orange","f","accept",5,692
"281","id0011",1,19,0,0,"human","training_others",4,6,"CornflowerBlue","j","reject",0,708
"282","id0011",1,20,0,0,"AI","training_others",4,6,"Orange","f","accept",6,3553
"283","id0011",1,21,0,0,"human","training_others",6,4,"CornflowerBlue","f","accept",4,474
"284","id0011",1,22,0,0,"human","training_others",5,5,"CornflowerBlue","f","accept",5,479
"285","id0011",1,23,0,0,"human","training_others",9,1,"CornflowerBlue","f","accept",1,499
"286","id0011",1,24,0,0,"AI","training_others",9,1,"Orange","j","reject",0,735
"287","id0012",0,1,1,0,"practice","Practice",4,6,"black","f","accept",6,4960
"288","id0012",0,2,1,0,"practice","Practice",6,4,"black","f","accept",4,1094
"289","id0012",1,1,0,0,"human","training_others",8,2,"Orange","j","reject",0,8000
"290","id0012",1,2,0,0,"human","training_others",9,1,"Orange","j","reject",0,755
"291","id0012",1,3,0,0,"human","training_others",6,4,"Orange","f","accept",4,1149
"292","id0012",1,4,0,0,"AI","training_others",6,4,"CornflowerBlue","f","accept",4,880
"293","id0012",1,5,0,0,"human","training_others",9,1,"Orange","j","reject",0,1318
"294","id0012",1,6,0,0,"human","training_others",5,5,"Orange","f","accept",5,753
"295","id0012",1,7,0,0,"human","training_others",4,6,"Orange","f","accept",6,1333
"296","id0012",1,8,0,0,"AI","training_others",4,6,"CornflowerBlue","f","accept",6,689
"297","id0012",1,9,0,0,"human","training_others",4,6,"Orange","f","accept",6,677
"298","id0012",1,10,0,0,"human","training_others",6,4,"Orange","f","accept",4,753
"299","id0012",1,11,0,0,"human","training_others",7,3,"Orange","f","accept",3,1518
"300","id0012",1,12,0,0,"human","training_others",5,5,"Orange","f","accept",5,642
"301","id0012",1,13,0,0,"human","training_others",7,3,"Orange","f","accept",3,1051
"302","id0012",1,14,0,0,"AI","training_others",6,4,"CornflowerBlue","f","accept",4,743
"303","id0012",1,15,0,1,"AI","training_others",5,5,"CornflowerBlue","f","accept",5,660
"304","id0012",1,16,0,0,"AI","training_others",5,5,"CornflowerBlue","f","accept",5,483
"305","id0012",1,17,0,0,"AI","training_others",4,6,"CornflowerBlue","f","accept",6,759
"306","id0012",1,18,0,0,"AI","training_others",7,3,"CornflowerBlue","j","reject",0,7887
"307","id0012",1,19,0,0,"AI","training_others",9,1,"CornflowerBlue","j","reject",0,569
"308","id0012",1,20,0,0,"AI","training_others",7,3,"CornflowerBlue","f","accept",3,699
"309","id0012",1,21,0,0,"AI","training_others",9,1,"CornflowerBlue","j","reject",0,640
"310","id0012",1,22,0,0,"AI","training_others",8,2,"CornflowerBlue","j","reject",0,575
"311","id0012",1,23,0,0,"AI","training_others",8,2,"CornflowerBlue","j","reject",0,553
"312","id0012",1,24,0,0,"human","training_others",8,2,"Orange","j","reject",0,580
"313","id0013",0,1,1,0,"practice","Practice",4,6,"black","f","accept",6,982
"314","id0013",0,2,1,0,"practice","Practice",1,9,"black","f","accept",9,987
"315","id0013",1,1,0,0,"AI","control",9,1,"CornflowerBlue","f","accept",1,814
"316","id0013",1,2,0,0,"human","control",6,4,"Orange","f","accept",4,721
"317","id0013",1,3,0,0,"human","control",6,4,"Orange","f","accept",4,531
"318","id0013",1,4,0,0,"AI","control",5,5,"CornflowerBlue","f","accept",5,977
"319","id0013",1,5,0,0,"AI","control",4,6,"CornflowerBlue","f","accept",6,992
"320","id0013",1,6,0,0,"human","control",7,3,"Orange","f","accept",3,850
"321","id0013",1,7,0,0,"AI","control",7,3,"CornflowerBlue","f","accept",3,927
"322","id0013",1,8,0,0,"human","control",5,5,"Orange","f","accept",5,878
"323","id0013",1,9,0,0,"human","control",7,3,"Orange","f","accept",3,1002
"324","id0013",1,10,0,0,"human","control",8,2,"Orange","f","accept",2,784
"325","id0013",1,11,0,0,"human","control",4,6,"Orange","f","accept",6,576
"326","id0013",1,12,0,0,"AI","control",6,4,"CornflowerBlue","f","accept",4,785
"327","id0013",1,13,0,0,"AI","control",4,6,"CornflowerBlue","f","accept",6,658
"328","id0013",1,14,0,0,"human","control",9,1,"Orange","f","accept",1,676
"329","id0013",1,15,0,0,"human","control",9,1,"Orange","f","accept",1,656
"330","id0013",1,16,0,1,"AI","control",5,5,"CornflowerBlue","f","accept",5,580
"331","id0013",1,17,0,0,"AI","control",9,1,"CornflowerBlue","f","accept",1,794
"332","id0013",1,18,0,0,"AI","control",6,4,"CornflowerBlue","f","accept",4,723
"333","id0013",1,19,0,0,"AI","control",7,3,"CornflowerBlue","f","accept",3,562
"334","id0013",1,20,0,0,"AI","control",8,2,"CornflowerBlue","f","accept",2,575
"335","id0013",1,21,0,0,"AI","control",8,2,"CornflowerBlue","f","accept",2,582
"336","id0013",1,22,0,0,"human","control",8,2,"Orange","f","accept",2,657
"337","id0013",1,23,0,0,"human","control",5,5,"Orange","f","accept",5,131
"338","id0013",1,24,0,0,"human","control",4,6,"Orange","f","accept",6,1873
"339","id0014",0,1,1,0,"practice","Practice",9,1,"black","j","reject",0,3430
"340","id0014",0,2,1,0,"practice","Practice",3,7,"black","f","accept",7,689
"341","id0014",1,1,0,0,"AI","training_others",7,3,"CornflowerBlue","f","accept",3,443
"342","id0014",1,2,0,0,"AI","training_others",9,1,"CornflowerBlue","j","reject",0,375
"343","id0014",1,3,0,0,"AI","training_others",6,4,"CornflowerBlue","f","accept",4,336
"344","id0014",1,4,0,1,"human","training_others",6,4,"Orange","f","accept",4,395
"345","id0014",1,5,0,0,"human","training_others",6,4,"Orange","f","accept",4,343
"346","id0014",1,6,0,0,"human","training_others",8,2,"Orange","j","reject",0,487
"347","id0014",1,7,0,0,"AI","training_others",5,5,"CornflowerBlue","f","accept",5,337
"348","id0014",1,8,0,0,"AI","training_others",8,2,"CornflowerBlue","j","reject",0,309
"349","id0014",1,9,0,0,"human","training_others",9,1,"Orange","j","reject",0,403
"350","id0014",1,10,0,0,"human","training_others",5,5,"Orange","f","accept",5,309
"351","id0014",1,11,0,0,"AI","training_others",5,5,"CornflowerBlue","f","accept",5,325
"352","id0014",1,12,0,0,"human","training_others",8,2,"Orange","j","reject",0,367
"353","id0014",1,13,0,0,"human","training_others",5,5,"Orange","f","accept",5,307
"354","id0014",1,14,0,0,"human","training_others",7,3,"Orange","f","accept",3,328
"355","id0014",1,15,0,0,"AI","training_others",4,6,"CornflowerBlue","f","accept",6,315
"356","id0014",1,16,0,0,"human","training_others",4,6,"Orange","f","accept",6,324
"357","id0014",1,17,0,0,"AI","training_others",7,3,"CornflowerBlue","f","accept",3,332
"358","id0014",1,18,0,0,"human","training_others",9,1,"Orange","j","reject",0,367
"359","id0014",1,19,0,0,"AI","training_others",4,6,"CornflowerBlue","f","accept",6,367
"360","id0014",1,20,0,0,"human","training_others",7,3,"Orange","f","accept",3,313
"361","id0014",1,21,0,0,"AI","training_others",6,4,"CornflowerBlue","f","accept",4,341
"362","id0014",1,22,0,0,"human","training_others",4,6,"Orange","f","accept",6,380
"363","id0014",1,23,0,0,"AI","training_others",9,1,"CornflowerBlue","j","reject",0,400
"364","id0014",1,24,0,0,"AI","training_others",8,2,"CornflowerBlue","j","reject",0,296
"365","id0015",0,1,1,0,"practice","Practice",9,1,"black","j","reject",0,852
"366","id0015",0,2,1,0,"practice","Practice",10,0,"black","j","reject",0,309
"367","id0015",1,1,0,0,"AI","training_others",8,2,"CornflowerBlue","f","accept",2,889
"368","id0015",1,2,0,0,"human","training_others",4,6,"Orange","f","accept",6,370
"369","id0015",1,3,0,0,"human","training_others",8,2,"Orange","j","reject",0,146
"370","id0015",1,4,0,0,"human","training_others",5,5,"Orange","f","accept",5,53
"371","id0015",1,5,0,0,"AI","training_others",7,3,"CornflowerBlue","f","accept",3,498
"372","id0015",1,6,0,0,"human","training_others",6,4,"Orange","f","accept",4,433
"373","id0015",1,7,0,0,"AI","training_others",6,4,"CornflowerBlue","f","accept",4,73
"374","id0015",1,8,0,0,"human","training_others",6,4,"Orange","f","accept",4,428
"375","id0015",1,9,0,0,"AI","training_others",5,5,"CornflowerBlue","f","accept",5,63
"376","id0015",1,10,0,0,"human","training_others",7,3,"Orange","j","reject",0,4
"377","id0015",1,11,0,0,"human","training_others",8,2,"Orange","j","reject",0,154
"378","id0015",1,12,0,0,"AI","training_others",6,4,"CornflowerBlue","f","accept",4,52
"379","id0015",1,13,0,0,"AI","training_others",9,1,"CornflowerBlue","j","reject",0,151
"380","id0015",1,14,0,0,"AI","training_others",5,5,"CornflowerBlue","f","accept",5,109
"381","id0015",1,15,0,1,"AI","training_others",7,3,"CornflowerBlue","j","reject",0,9
"382","id0015",1,16,0,0,"human","training_others",9,1,"Orange","j","reject",0,1139
"383","id0015",1,17,0,0,"AI","training_others",8,2,"CornflowerBlue","j","reject",0,850
"384","id0015",1,18,0,0,"human","training_others",9,1,"Orange","j","reject",0,81
"385","id0015",1,19,0,0,"AI","training_others",4,6,"CornflowerBlue","f","accept",6,149
"386","id0015",1,20,0,0,"human","training_others",7,3,"Orange","j","reject",0,141
"387","id0015",1,21,0,0,"human","training_others",4,6,"Orange","f","accept",6,1282
"388","id0015",1,22,0,0,"AI","training_others",9,1,"CornflowerBlue","j","reject",0,273
"389","id0015",1,23,0,0,"AI","training_others",4,6,"CornflowerBlue","f","accept",6,404
"390","id0015",1,24,0,0,"human","training_others",5,5,"Orange","f","accept",5,138
"391","id0016",0,1,1,0,"practice","Practice",10,0,"black","j","reject",0,1656
"392","id0016",0,2,1,0,"practice","Practice",6,4,"black","f","accept",4,839
"393","id0016",1,1,0,0,"AI","training_others",5,5,"CornflowerBlue","f","accept",5,569
"394","id0016",1,2,0,0,"AI","training_others",4,6,"CornflowerBlue","f","accept",6,266
"395","id0016",1,3,0,1,"human","training_others",8,2,"Orange","j","reject",0,241
"396","id0016",1,4,0,0,"AI","training_others",8,2,"CornflowerBlue","j","reject",0,317
"397","id0016",1,5,0,0,"AI","training_others",9,1,"CornflowerBlue","j","reject",0,292
"398","id0016",1,6,0,0,"human","training_others",9,1,"Orange","j","reject",0,1070
"399","id0016",1,7,0,0,"human","training_others",4,6,"Orange","f","accept",6,372
"400","id0016",1,8,0,0,"AI","training_others",6,4,"CornflowerBlue","f","accept",4,489
"401","id0016",1,9,0,0,"AI","training_others",7,3,"CornflowerBlue","j","reject",0,400
"402","id0016",1,10,0,0,"AI","training_others",8,2,"CornflowerBlue","j","reject",0,549
"403","id0016",1,11,0,0,"AI","training_others",4,6,"CornflowerBlue","f","accept",6,380
"404","id0016",1,12,0,0,"human","training_others",5,5,"Orange","f","accept",5,603
"405","id0016",1,13,0,0,"human","training_others",6,4,"Orange","f","accept",4,430
"406","id0016",1,14,0,0,"AI","training_others",6,4,"CornflowerBlue","f","accept",4,391
"407","id0016",1,15,0,0,"human","training_others",6,4,"Orange","f","accept",4,413
"408","id0016",1,16,0,0,"human","training_others",5,5,"Orange","f","accept",5,486
"409","id0016",1,17,0,0,"AI","training_others",9,1,"CornflowerBlue","j","reject",0,545
"410","id0016",1,18,0,0,"AI","training_others",5,5,"CornflowerBlue","f","accept",5,494
"411","id0016",1,19,0,0,"human","training_others",4,6,"Orange","f","accept",6,412
"412","id0016",1,20,0,0,"AI","training_others",7,3,"CornflowerBlue","j","reject",0,945
"413","id0016",1,21,0,0,"human","training_others",7,3,"Orange","j","reject",0,507
"414","id0016",1,22,0,0,"human","training_others",7,3,"Orange","j","reject",0,726
"415","id0016",1,23,0,0,"human","training_others",9,1,"Orange","j","reject",0,419
"416","id0016",1,24,0,0,"human","training_others",8,2,"Orange","j","reject",0,588
"417","id0017",0,1,1,0,"practice","Practice",9,1,"black","j","reject",0,3870
"418","id0017",0,2,1,0,"practice","Practice",2,8,"black","f","accept",8,2691
"419","id0017",1,1,0,0,"human","training_others",4,6,"CornflowerBlue","f","accept",6,1161
"420","id0017",1,2,0,0,"AI","training_others",4,6,"Orange","f","accept",6,852
"421","id0017",1,3,0,0,"human","training_others",6,4,"CornflowerBlue","j","reject",0,805
"422","id0017",1,4,0,0,"AI","training_others",5,5,"Orange","f","accept",5,474
"423","id0017",1,5,0,0,"human","training_others",5,5,"CornflowerBlue","f","accept",5,358
"424","id0017",1,6,0,0,"human","training_others",7,3,"CornflowerBlue","f","accept",3,533
"425","id0017",1,7,0,0,"AI","training_others",9,1,"Orange","f","accept",1,370
"426","id0017",1,8,0,0,"human","training_others",8,2,"CornflowerBlue","j","reject",0,500
"427","id0017",1,9,0,0,"AI","training_others",7,3,"Orange","j","reject",0,396
"428","id0017",1,10,0,0,"human","training_others",4,6,"CornflowerBlue","f","accept",6,356
"429","id0017",1,11,0,0,"AI","training_others",8,2,"Orange","j","reject",0,466
"430","id0017",1,12,0,0,"AI","training_others",4,6,"Orange","f","accept",6,1199
"431","id0017",1,13,0,0,"AI","training_others",8,2,"Orange","j","reject",0,437
"432","id0017",1,14,0,0,"AI","training_others",6,4,"Orange","j","reject",0,426
"433","id0017",1,15,0,0,"AI","training_others",9,1,"Orange","j","reject",0,422
"434","id0017",1,16,0,1,"human","training_others",6,4,"CornflowerBlue","j","reject",0,740
"435","id0017",1,17,0,0,"human","training_others",9,1,"CornflowerBlue","j","reject",0,342
"436","id0017",1,18,0,0,"human","training_others",8,2,"CornflowerBlue","j","reject",0,350
"437","id0017",1,19,0,0,"AI","training_others",5,5,"Orange","f","accept",5,343
"438","id0017",1,20,0,0,"human","training_others",7,3,"CornflowerBlue","j","reject",0,325
"439","id0017",1,21,0,0,"AI","training_others",7,3,"Orange","j","reject",0,1854
"440","id0017",1,22,0,0,"AI","training_others",6,4,"Orange","j","reject",0,908
"441","id0017",1,23,0,0,"human","training_others",5,5,"CornflowerBlue","f","accept",5,620
"442","id0017",1,24,0,0,"human","training_others",9,1,"CornflowerBlue","j","reject",0,6787
"443","id0018",0,1,1,0,"practice","Practice",5,5,"black","f","accept",5,23
"444","id0018",0,2,1,0,"practice","Practice",5,5,"black","f","accept",5,1432
"445","id0018",1,1,0,0,"AI","control",9,1,"CornflowerBlue","j","reject",0,279
"446","id0018",1,2,0,0,"AI","control",5,5,"CornflowerBlue","f","accept",5,43
"447","id0018",1,3,0,0,"AI","control",8,2,"CornflowerBlue","j","reject",0,375
"448","id0018",1,4,0,0,"AI","control",7,3,"CornflowerBlue","j","reject",0,282
"449","id0018",1,5,0,0,"human","control",5,5,"Orange","f","accept",5,256
"450","id0018",1,6,0,0,"human","control",8,2,"Orange","j","reject",0,300
"451","id0018",1,7,0,0,"human","control",9,1,"Orange","j","reject",0,319
"452","id0018",1,8,0,0,"human","control",7,3,"Orange","j","reject",0,345
"453","id0018",1,9,0,0,"AI","control",8,2,"CornflowerBlue","j","reject",0,341
"454","id0018",1,10,0,0,"AI","control",7,3,"CornflowerBlue","j","reject",0,269
"455","id0018",1,11,0,0,"AI","control",9,1,"CornflowerBlue","j","reject",0,363
"456","id0018",1,12,0,0,"AI","control",4,6,"CornflowerBlue","f","accept",6,277
"457","id0018",1,13,0,0,"human","control",4,6,"Orange","f","accept",6,777
"458","id0018",1,14,0,0,"human","control",4,6,"Orange","f","accept",6,560
"459","id0018",1,15,0,0,"human","control",6,4,"Orange","f","accept",4,604
"460","id0018",1,16,0,0,"AI","control",4,6,"CornflowerBlue","f","accept",6,465
"461","id0018",1,17,0,0,"human","control",6,4,"Orange","f","accept",4,1147
"462","id0018",1,18,0,0,"human","control",9,1,"Orange","j","reject",0,360
"463","id0018",1,19,0,0,"AI","control",6,4,"CornflowerBlue","f","accept",4,283
"464","id0018",1,20,0,0,"human","control",7,3,"Orange","j","reject",0,295
"465","id0018",1,21,0,1,"human","control",8,2,"Orange","j","reject",0,313
"466","id0018",1,22,0,0,"human","control",5,5,"Orange","f","accept",5,308
"467","id0018",1,23,0,0,"AI","control",6,4,"CornflowerBlue","f","accept",4,319
"468","id0018",1,24,0,0,"AI","control",5,5,"CornflowerBlue","f","accept",5,284
"469","id0019",0,1,1,0,"practice","Practice",6,4,"black","f","accept",4,225
"470","id0019",0,2,1,0,"practice","Practice",4,6,"black","f","accept",6,810
"471","id0019",1,1,0,0,"AI","control",7,3,"CornflowerBlue","f","accept",3,480
"472","id0019",1,2,0,0,"AI","control",8,2,"CornflowerBlue","f","accept",2,697
"473","id0019",1,3,0,0,"human","control",5,5,"Orange","f","accept",5,667
"474","id0019",1,4,0,0,"human","control",8,2,"Orange","f","accept",2,448
"475","id0019",1,5,0,0,"AI","control",5,5,"CornflowerBlue","f","accept",5,883
"476","id0019",1,6,0,0,"human","control",4,6,"Orange","f","accept",6,822
"477","id0019",1,7,0,0,"AI","control",9,1,"CornflowerBlue","f","accept",1,1189
"478","id0019",1,8,0,0,"AI","control",8,2,"CornflowerBlue","f","accept",2,783
"479","id0019",1,9,0,0,"human","control",9,1,"Orange","f","accept",1,777
"480","id0019",1,10,0,0,"human","control",4,6,"Orange","f","accept",6,718
"481","id0019",1,11,0,0,"AI","control",6,4,"CornflowerBlue","f","accept",4,876
"482","id0019",1,12,0,0,"AI","control",6,4,"CornflowerBlue","f","accept",4,837
"483","id0019",1,13,0,0,"human","control",5,5,"Orange","f","accept",5,629
"484","id0019",1,14,0,0,"human","control",6,4,"Orange","f","accept",4,752
"485","id0019",1,15,0,0,"human","control",7,3,"Orange","f","accept",3,813
"486","id0019",1,16,0,0,"human","control",9,1,"Orange","f","accept",1,721
"487","id0019",1,17,0,0,"human","control",8,2,"Orange","f","accept",2,730
"488","id0019",1,18,0,0,"human","control",6,4,"Orange","f","accept",4,803
"489","id0019",1,19,0,0,"AI","control",7,3,"CornflowerBlue","f","accept",3,714
"490","id0019",1,20,0,0,"AI","control",9,1,"CornflowerBlue","f","accept",1,597
"491","id0019",1,21,0,0,"AI","control",5,5,"CornflowerBlue","f","accept",5,788
"492","id0019",1,22,0,0,"AI","control",4,6,"CornflowerBlue","f","accept",6,740
"493","id0019",1,23,0,1,"AI","control",4,6,"CornflowerBlue","f","accept",6,830
"494","id0019",1,24,0,0,"human","control",7,3,"Orange","f","accept",3,790
"495","id0020",0,1,1,0,"practice","Practice",3,7,"black","f","accept",7,1946
"496","id0020",0,2,1,0,"practice","Practice",4,6,"black","f","accept",6,1091
"497","id0020",1,1,0,0,"human","control",4,6,"CornflowerBlue","f","accept",6,1186
"498","id0020",1,2,0,0,"human","control",7,3,"CornflowerBlue","j","reject",0,1512
"499","id0020",1,3,0,0,"AI","control",6,4,"Orange","f","accept",4,2888
"500","id0020",1,4,0,0,"AI","control",8,2,"Orange","j","reject",0,259
"501","id0020",1,5,0,0,"AI","control",9,1,"Orange","j","reject",0,212
"502","id0020",1,6,0,0,"human","control",4,6,"CornflowerBlue","f","accept",6,5066
"503","id0020",1,7,0,0,"human","control",6,4,"CornflowerBlue","f","accept",4,1438
"504","id0020",1,8,0,0,"AI","control",4,6,"Orange","f","accept",6,1155
"505","id0020",1,9,0,0,"human","control",8,2,"CornflowerBlue","j","reject",0,687
"506","id0020",1,10,0,0,"AI","control",9,1,"Orange","j","reject",0,341
"507","id0020",1,11,0,0,"human","control",9,1,"CornflowerBlue","j","reject",0,802
"508","id0020",1,12,0,0,"human","control",5,5,"CornflowerBlue","f","accept",5,208
"509","id0020",1,13,0,0,"AI","control",4,6,"Orange","f","accept",6,269
"510","id0020",1,14,0,0,"AI","control",5,5,"Orange","f","accept",5,1553
"511","id0020",1,15,0,1,"AI","control",5,5,"Orange","f","accept",5,1045
"512","id0020",1,16,0,0,"human","control",5,5,"CornflowerBlue","f","accept",5,458
"513","id0020",1,17,0,0,"human","control",8,2,"CornflowerBlue","j","reject",0,1390
"514","id0020",1,18,0,0,"AI","control",6,4,"Orange","f","accept",4,1055
"515","id0020",1,19,0,0,"human","control",7,3,"CornflowerBlue","j","reject",0,913
"516","id0020",1,20,0,0,"human","control",6,4,"CornflowerBlue","f","accept",4,1684
"517","id0020",1,21,0,0,"AI","control",8,2,"Orange","j","reject",0,731
"518","id0020",1,22,0,0,"human","control",9,1,"CornflowerBlue","j","reject",0,714
"519","id0020",1,23,0,0,"AI","control",7,3,"Orange","j","reject",0,669
"520","id0020",1,24,0,0,"AI","control",7,3,"Orange","j","reject",0,1350
"521","id0021",0,1,1,0,"practice","Practice",2,8,"black","f","accept",8,1962
"522","id0021",0,2,1,0,"practice","Practice",8,2,"black","j","reject",0,3475
"523","id0021",1,1,0,0,"human","training_others",4,6,"Orange","f","accept",6,589
"524","id0021",1,2,0,0,"AI","training_others",8,2,"CornflowerBlue","f","accept",2,1961
"525","id0021",1,3,0,0,"AI","training_others",7,3,"CornflowerBlue","f","accept",3,576
"526","id0021",1,4,0,0,"human","training_others",9,1,"Orange","j","reject",0,349
"527","id0021",1,5,0,0,"AI","training_others",4,6,"CornflowerBlue","f","accept",6,707
"528","id0021",1,6,0,0,"AI","training_others",8,2,"CornflowerBlue","f","accept",2,487
"529","id0021",1,7,0,0,"AI","training_others",5,5,"CornflowerBlue","f","accept",5,147
"530","id0021",1,8,0,0,"human","training_others",7,3,"Orange","f","accept",3,1120
"531","id0021",1,9,0,0,"AI","training_others",6,4,"CornflowerBlue","f","accept",4,468
"532","id0021",1,10,0,0,"human","training_others",6,4,"Orange","f","accept",4,514
"533","id0021",1,11,0,0,"human","training_others",9,1,"Orange","j","reject",0,622
"534","id0021",1,12,0,0,"human","training_others",5,5,"Orange","f","accept",5,466
"535","id0021",1,13,0,0,"human","training_others",6,4,"Orange","f","accept",4,517
"536","id0021",1,14,0,0,"human","training_others",4,6,"Orange","f","accept",6,542
"537","id0021",1,15,0,0,"AI","training_others",5,5,"CornflowerBlue","f","accept",5,498
"538","id0021",1,16,0,0,"AI","training_others",9,1,"CornflowerBlue","j","reject",0,767
"539","id0021",1,17,0,0,"AI","training_others",7,3,"CornflowerBlue","f","accept",3,508
"540","id0021",1,18,0,0,"AI","training_others",6,4,"CornflowerBlue","f","accept",4,863
"541","id0021",1,19,0,0,"human","training_others",7,3,"Orange","f","accept",3,1112
"542","id0021",1,20,0,0,"human","training_others",8,2,"Orange","f","accept",2,211
"543","id0021",1,21,0,0,"AI","training_others",4,6,"CornflowerBlue","f","accept",6,1032
"544","id0021",1,22,0,0,"human","training_others",5,5,"Orange","f","accept",5,644
"545","id0021",1,23,0,0,"human","training_others",8,2,"Orange","f","accept",2,590
"546","id0021",1,24,0,1,"AI","training_others",9,1,"CornflowerBlue","j","reject",0,589
"547","id0022",0,1,1,0,"practice","Practice",8,2,"black","j","reject",0,834
"548","id0022",0,2,1,0,"practice","Practice",4,6,"black","f","accept",6,344
"549","id0022",1,1,0,0,"human","training_others",7,3,"CornflowerBlue","j","reject",0,562
"550","id0022",1,2,0,0,"AI","training_others",4,6,"Orange","f","accept",6,390
"551","id0022",1,3,0,0,"AI","training_others",9,1,"Orange","j","reject",0,615
"552","id0022",1,4,0,0,"AI","training_others",8,2,"Orange","j","reject",0,531
"553","id0022",1,5,0,0,"AI","training_others",4,6,"Orange","f","accept",6,366
"554","id0022",1,6,0,0,"human","training_others",6,4,"CornflowerBlue","f","accept",4,731
"555","id0022",1,7,0,0,"human","training_others",9,1,"CornflowerBlue","j","reject",0,348
"556","id0022",1,8,0,0,"human","training_others",8,2,"CornflowerBlue","j","reject",0,384
"557","id0022",1,9,0,0,"human","training_others",9,1,"CornflowerBlue","j","reject",0,391
"558","id0022",1,10,0,0,"human","training_others",7,3,"CornflowerBlue","j","reject",0,268
"559","id0022",1,11,0,0,"AI","training_others",5,5,"Orange","f","accept",5,22
"560","id0022",1,12,0,1,"AI","training_others",6,4,"Orange","f","accept",4,398
"561","id0022",1,13,0,0,"AI","training_others",5,5,"Orange","f","accept",5,381
"562","id0022",1,14,0,0,"AI","training_others",9,1,"Orange","j","reject",0,418
"563","id0022",1,15,0,0,"human","training_others",6,4,"CornflowerBlue","f","accept",4,343
"564","id0022",1,16,0,0,"AI","training_others",7,3,"Orange","j","reject",0,253
"565","id0022",1,17,0,0,"human","training_others",5,5,"CornflowerBlue","f","accept",5,852
"566","id0022",1,18,0,0,"human","training_others",4,6,"CornflowerBlue","f","accept",6,1056
"567","id0022",1,19,0,0,"human","training_others",5,5,"CornflowerBlue","f","accept",5,764
"568","id0022",1,20,0,0,"AI","training_others",6,4,"Orange","f","accept",4,320
"569","id0022",1,21,0,0,"human","training_others",4,6,"CornflowerBlue","f","accept",6,339
"570","id0022",1,22,0,0,"AI","training_others",8,2,"Orange","j","reject",0,344
"571","id0022",1,23,0,0,"human","training_others",8,2,"CornflowerBlue","j","reject",0,322
"572","id0022",1,24,0,0,"AI","training_others",7,3,"Orange","j","reject",0,731
"573","id0023",0,1,1,0,"practice","Practice",2,8,"black","f","accept",8,897
"574","id0023",0,2,1,0,"practice","Practice",9,1,"black","f","accept",1,39
"575","id0023",1,1,0,0,"human","control",9,1,"Orange","j","reject",0,909
"576","id0023",1,2,0,0,"AI","control",5,5,"CornflowerBlue","f","accept",5,314
"577","id0023",1,3,0,0,"AI","control",6,4,"CornflowerBlue","f","accept",4,1043
"578","id0023",1,4,0,0,"AI","control",9,1,"CornflowerBlue","j","reject",0,521
"579","id0023",1,5,0,0,"AI","control",5,5,"CornflowerBlue","f","accept",5,370
"580","id0023",1,6,0,0,"human","control",8,2,"Orange","j","reject",0,645
"581","id0023",1,7,0,0,"human","control",4,6,"Orange","f","accept",6,458
"582","id0023",1,8,0,0,"human","control",8,2,"Orange","j","reject",0,609
"583","id0023",1,9,0,0,"human","control",9,1,"Orange","j","reject",0,458
"584","id0023",1,10,0,0,"AI","control",7,3,"CornflowerBlue","f","accept",3,329
"585","id0023",1,11,0,0,"AI","control",7,3,"CornflowerBlue","f","accept",3,709
"586","id0023",1,12,0,0,"AI","control",8,2,"CornflowerBlue","j","reject",0,1337
"587","id0023",1,13,0,0,"human","control",4,6,"Orange","f","accept",6,399
"588","id0023",1,14,0,0,"human","control",5,5,"Orange","f","accept",5,113
"589","id0023",1,15,0,0,"AI","control",9,1,"CornflowerBlue","j","reject",0,391
"590","id0023",1,16,0,0,"human","control",7,3,"Orange","f","accept",3,376
"591","id0023",1,17,0,0,"AI","control",4,6,"CornflowerBlue","f","accept",6,309
"592","id0023",1,18,0,0,"human","control",7,3,"Orange","f","accept",3,352
"593","id0023",1,19,0,0,"AI","control",4,6,"CornflowerBlue","f","accept",6,322
"594","id0023",1,20,0,0,"human","control",5,5,"Orange","f","accept",5,291
"595","id0023",1,21,0,0,"human","control",6,4,"Orange","f","accept",4,183
"596","id0023",1,22,0,1,"AI","control",8,2,"CornflowerBlue","j","reject",0,612
"597","id0023",1,23,0,0,"human","control",6,4,"Orange","f","accept",4,324
"598","id0023",1,24,0,0,"AI","control",6,4,"CornflowerBlue","f","accept",4,313
"599","id0024",0,1,1,0,"practice","Practice",8,2,"black","j","reject",0,1963
"600","id0024",0,2,1,0,"practice","Practice",9,1,"black","j","reject",0,568
"601","id0024",1,1,0,0,"human","training_others",7,3,"CornflowerBlue","f","accept",3,1786
"602","id0024",1,2,0,0,"human","training_others",6,4,"CornflowerBlue","f","accept",4,563
"603","id0024",1,3,0,0,"AI","training_others",5,5,"Orange","f","accept",5,617
"604","id0024",1,4,0,0,"human","training_others",4,6,"CornflowerBlue","f","accept",6,823
"605","id0024",1,5,0,0,"AI","training_others",8,2,"Orange","j","reject",0,2819
"606","id0024",1,6,0,0,"AI","training_others",4,6,"Orange","f","accept",6,588
"607","id0024",1,7,0,0,"AI","training_others",7,3,"Orange","f","accept",3,1221
"608","id0024",1,8,0,0,"AI","training_others",5,5,"Orange","f","accept",5,469
"609","id0024",1,9,0,0,"human","training_others",4,6,"CornflowerBlue","f","accept",6,802
"610","id0024",1,10,0,0,"human","training_others",5,5,"CornflowerBlue","f","accept",5,435
"611","id0024",1,11,0,0,"human","training_others",6,4,"CornflowerBlue","f","accept",4,500
"612","id0024",1,12,0,0,"human","training_others",8,2,"CornflowerBlue","j","reject",0,1323
"613","id0024",1,13,0,0,"AI","training_others",9,1,"Orange","j","reject",0,312
"614","id0024",1,14,0,0,"AI","training_others",4,6,"Orange","f","accept",6,431
"615","id0024",1,15,0,0,"AI","training_others",7,3,"Orange","f","accept",3,582
"616","id0024",1,16,0,0,"AI","training_others",8,2,"Orange","j","reject",0,1341
"617","id0024",1,17,0,0,"AI","training_others",9,1,"Orange","j","reject",0,260
"618","id0024",1,18,0,0,"human","training_others",5,5,"CornflowerBlue","f","accept",5,532
"619","id0024",1,19,0,1,"human","training_others",7,3,"CornflowerBlue","f","accept",3,471
"620","id0024",1,20,0,0,"human","training_others",9,1,"CornflowerBlue","j","reject",0,363
"621","id0024",1,21,0,0,"AI","training_others",6,4,"Orange","f","accept",4,500
"622","id0024",1,22,0,0,"human","training_others",8,2,"CornflowerBlue","j","reject",0,954
"623","id0024",1,23,0,0,"human","training_others",9,1,"CornflowerBlue","j","reject",0,445
"624","id0024",1,24,0,0,"AI","training_others",6,4,"Orange","f","accept",4,556
"625","id0025",0,1,1,0,"practice","Practice",10,0,"black","j","reject",0,1857
"626","id0025",0,2,1,0,"practice","Practice",4,6,"black","f","accept",6,1263
"627","id0025",1,1,0,0,"human","training_others",4,6,"CornflowerBlue","f","accept",6,657
"628","id0025",1,2,0,0,"human","training_others",7,3,"CornflowerBlue","j","reject",0,514
"629","id0025",1,3,0,0,"human","training_others",8,2,"CornflowerBlue","j","reject",0,322
"630","id0025",1,4,0,0,"AI","training_others",4,6,"Orange","f","accept",6,357
"631","id0025",1,5,0,0,"human","training_others",6,4,"CornflowerBlue","f","accept",4,768
"632","id0025",1,6,0,0,"AI","training_others",5,5,"Orange","f","accept",5,343
"633","id0025",1,7,0,0,"AI","training_others",7,3,"Orange","j","reject",0,328
"634","id0025",1,8,0,0,"human","training_others",9,1,"CornflowerBlue","j","reject",0,286
"635","id0025",1,9,0,0,"human","training_others",4,6,"CornflowerBlue","f","accept",6,311
"636","id0025",1,10,0,0,"AI","training_others",7,3,"Orange","j","reject",0,328
"637","id0025",1,11,0,0,"AI","training_others",9,1,"Orange","j","reject",0,355
"638","id0025",1,12,0,0,"human","training_others",5,5,"CornflowerBlue","f","accept",5,299
"639","id0025",1,13,0,0,"human","training_others",6,4,"CornflowerBlue","f","accept",4,377
"640","id0025",1,14,0,0,"AI","training_others",6,4,"Orange","f","accept",4,344
"641","id0025",1,15,0,0,"human","training_others",8,2,"CornflowerBlue","j","reject",0,286
"642","id0025",1,16,0,0,"AI","training_others",6,4,"Orange","f","accept",4,377
"643","id0025",1,17,0,1,"AI","training_others",8,2,"Orange","j","reject",0,393
"644","id0025",1,18,0,0,"AI","training_others",5,5,"Orange","f","accept",5,282
"645","id0025",1,19,0,0,"human","training_others",5,5,"CornflowerBlue","f","accept",5,315
"646","id0025",1,20,0,0,"human","training_others",7,3,"CornflowerBlue","j","reject",0,340
"647","id0025",1,21,0,0,"AI","training_others",8,2,"Orange","j","reject",0,308
"648","id0025",1,22,0,0,"AI","training_others",4,6,"Orange","f","accept",6,315
"649","id0025",1,23,0,0,"AI","training_others",9,1,"Orange","j","reject",0,323
"650","id0025",1,24,0,0,"human","training_others",9,1,"CornflowerBlue","j","reject",0,377
"651","id0026",0,1,1,0,"practice","Practice",3,7,"black","f","accept",7,4843
"652","id0026",0,2,1,0,"practice","Practice",5,5,"black","f","accept",5,1566
"653","id0026",1,1,0,0,"human","control",5,5,"Orange","f","accept",5,1727
"654","id0026",1,2,0,0,"human","control",9,1,"Orange","j","reject",0,1706
"655","id0026",1,3,0,0,"human","control",4,6,"Orange","f","accept",6,644
"656","id0026",1,4,0,0,"human","control",8,2,"Orange","j","reject",0,890
"657","id0026",1,5,0,0,"AI","control",9,1,"CornflowerBlue","j","reject",0,572
"658","id0026",1,6,0,0,"AI","control",4,6,"CornflowerBlue","f","accept",6,2865
"659","id0026",1,7,0,1,"AI","control",6,4,"CornflowerBlue","f","accept",4,1643
"660","id0026",1,8,0,0,"human","control",7,3,"Orange","f","accept",3,1430
"661","id0026",1,9,0,0,"human","control",9,1,"Orange","j","reject",0,915
"662","id0026",1,10,0,0,"human","control",5,5,"Orange","f","accept",5,901
"663","id0026",1,11,0,0,"AI","control",4,6,"CornflowerBlue","f","accept",6,4579
"664","id0026",1,12,0,0,"human","control",7,3,"Orange","j","reject",0,4706
"665","id0026",1,13,0,0,"human","control",6,4,"Orange","f","accept",4,1015
"666","id0026",1,14,0,0,"AI","control",5,5,"CornflowerBlue","f","accept",5,248
"667","id0026",1,15,0,0,"AI","control",7,3,"CornflowerBlue","f","accept",3,1676
"668","id0026",1,16,0,0,"human","control",8,2,"Orange","f","accept",2,3433
"669","id0026",1,17,0,0,"AI","control",8,2,"CornflowerBlue","j","reject",0,3020
"670","id0026",1,18,0,0,"AI","control",9,1,"CornflowerBlue","j","reject",0,993
"671","id0026",1,19,0,0,"AI","control",5,5,"CornflowerBlue","f","accept",5,1362
"672","id0026",1,20,0,0,"AI","control",7,3,"CornflowerBlue","j","reject",0,9695
"673","id0026",1,21,0,0,"AI","control",6,4,"CornflowerBlue","f","accept",4,433
"674","id0026",1,22,0,0,"human","control",6,4,"Orange","f","accept",4,4299
"675","id0026",1,23,0,0,"human","control",4,6,"Orange","f","accept",6,1623
"676","id0026",1,24,0,0,"AI","control",8,2,"CornflowerBlue","j","reject",0,107
"677","id0027",0,1,1,0,"practice","Practice",2,8,"black","f","accept",8,4729
"678","id0027",0,2,1,0,"practice","Practice",3,7,"black","f","accept",7,447
"679","id0027",1,1,0,0,"AI","control",6,4,"Orange","f","accept",4,639
"680","id0027",1,2,0,0,"AI","control",8,2,"Orange","j","reject",0,317
"681","id0027",1,3,0,0,"human","control",6,4,"CornflowerBlue","f","accept",4,312
"682","id0027",1,4,0,0,"human","control",8,2,"CornflowerBlue","j","reject",0,358
"683","id0027",1,5,0,0,"AI","control",7,3,"Orange","j","reject",0,406
"684","id0027",1,6,0,0,"human","control",5,5,"CornflowerBlue","f","accept",5,375
"685","id0027",1,7,0,0,"AI","control",9,1,"Orange","j","reject",0,353
"686","id0027",1,8,0,0,"AI","control",7,3,"Orange","j","reject",0,289
"687","id0027",1,9,0,0,"human","control",5,5,"CornflowerBlue","f","accept",5,339
"688","id0027",1,10,0,0,"AI","control",8,2,"Orange","j","reject",0,435
"689","id0027",1,11,0,0,"AI","control",4,6,"Orange","f","accept",6,406
"690","id0027",1,12,0,0,"AI","control",5,5,"Orange","f","accept",5,366
"691","id0027",1,13,0,0,"human","control",4,6,"CornflowerBlue","f","accept",6,429
"692","id0027",1,14,0,0,"human","control",4,6,"CornflowerBlue","f","accept",6,299
"693","id0027",1,15,0,0,"human","control",8,2,"CornflowerBlue","j","reject",0,330
"694","id0027",1,16,0,1,"AI","control",5,5,"Orange","f","accept",5,378
"695","id0027",1,17,0,0,"AI","control",4,6,"Orange","f","accept",6,367
"696","id0027",1,18,0,0,"human","control",9,1,"CornflowerBlue","j","reject",0,402
"697","id0027",1,19,0,0,"AI","control",6,4,"Orange","f","accept",4,273
"698","id0027",1,20,0,0,"AI","control",9,1,"Orange","j","reject",0,264
"699","id0027",1,21,0,0,"human","control",9,1,"CornflowerBlue","j","reject",0,340
"700","id0027",1,22,0,0,"human","control",7,3,"CornflowerBlue","j","reject",0,399
"701","id0027",1,23,0,0,"human","control",7,3,"CornflowerBlue","j","reject",0,322
"702","id0027",1,24,0,0,"human","control",6,4,"CornflowerBlue","f","accept",4,885
"703","id0028",0,1,1,0,"practice","Practice",7,3,"black","j","reject",0,734
"704","id0028",0,2,1,0,"practice","Practice",9,1,"black","j","reject",0,360
"705","id0028",1,1,0,0,"human","control",5,5,"CornflowerBlue","f","accept",5,343
"706","id0028",1,2,0,1,"human","control",7,3,"CornflowerBlue","j","reject",0,460
"707","id0028",1,3,0,0,"human","control",7,3,"CornflowerBlue","j","reject",0,467
"708","id0028",1,4,0,0,"human","control",9,1,"CornflowerBlue","j","reject",0,522
"709","id0028",1,5,0,0,"AI","control",9,1,"Orange","j","reject",0,483
"710","id0028",1,6,0,0,"AI","control",8,2,"Orange","j","reject",0,528
"711","id0028",1,7,0,0,"human","control",5,5,"CornflowerBlue","f","accept",5,460
"712","id0028",1,8,0,0,"human","control",8,2,"CornflowerBlue","j","reject",0,366
"713","id0028",1,9,0,0,"human","control",9,1,"CornflowerBlue","j","reject",0,440
"714","id0028",1,10,0,0,"AI","control",7,3,"Orange","j","reject",0,823
"715","id0028",1,11,0,0,"human","control",6,4,"CornflowerBlue","f","accept",4,563
"716","id0028",1,12,0,0,"AI","control",8,2,"Orange","j","reject",0,491
"717","id0028",1,13,0,0,"AI","control",6,4,"Orange","f","accept",4,787
"718","id0028",1,14,0,0,"AI","control",5,5,"Orange","f","accept",5,612
"719","id0028",1,15,0,0,"human","control",4,6,"CornflowerBlue","f","accept",6,718
"720","id0028",1,16,0,0,"AI","control",9,1,"Orange","j","reject",0,571
"721","id0028",1,17,0,0,"AI","control",5,5,"Orange","f","accept",5,513
"722","id0028",1,18,0,0,"human","control",4,6,"CornflowerBlue","f","accept",6,745
"723","id0028",1,19,0,0,"human","control",6,4,"CornflowerBlue","f","accept",4,500
"724","id0028",1,20,0,0,"AI","control",7,3,"Orange","j","reject",0,672
"725","id0028",1,21,0,0,"human","control",8,2,"CornflowerBlue","j","reject",0,2135
"726","id0028",1,22,0,0,"AI","control",4,6,"Orange","f","accept",6,858
"727","id0028",1,23,0,0,"AI","control",4,6,"Orange","f","accept",6,2733
"728","id0028",1,24,0,0,"AI","control",6,4,"Orange","f","accept",4,1543
"729","id0029",0,1,1,0,"practice","Practice",2,8,"black","f","accept",8,746
"730","id0029",0,2,1,0,"practice","Practice",10,0,"black","j","reject",0,527
"731","id0029",1,1,0,0,"AI","control",9,1,"CornflowerBlue","j","reject",0,711
"732","id0029",1,2,0,0,"human","control",4,6,"Orange","j","reject",0,413
"733","id0029",1,3,0,0,"human","control",4,6,"Orange","j","reject",0,388
"734","id0029",1,4,0,0,"AI","control",7,3,"CornflowerBlue","j","reject",0,388
"735","id0029",1,5,0,0,"AI","control",5,5,"CornflowerBlue","j","reject",0,437
"736","id0029",1,6,0,0,"human","control",7,3,"Orange","j","reject",0,335
"737","id0029",1,7,0,0,"AI","control",4,6,"CornflowerBlue","j","reject",0,359
"738","id0029",1,8,0,0,"human","control",6,4,"Orange","j","reject",0,471
"739","id0029",1,9,0,0,"AI","control",7,3,"CornflowerBlue","j","reject",0,455
"740","id0029",1,10,0,0,"AI","control",5,5,"CornflowerBlue","j","reject",0,517
"741","id0029",1,11,0,1,"AI","control",6,4,"CornflowerBlue","j","reject",0,407
"742","id0029",1,12,0,0,"human","control",8,2,"Orange","j","reject",0,346
"743","id0029",1,13,0,0,"human","control",9,1,"Orange","j","reject",0,425
"744","id0029",1,14,0,0,"AI","control",4,6,"CornflowerBlue","j","reject",0,338
"745","id0029",1,15,0,0,"human","control",5,5,"Orange","j","reject",0,398
"746","id0029",1,16,0,0,"human","control",5,5,"Orange","j","reject",0,319
"747","id0029",1,17,0,0,"human","control",6,4,"Orange","j","reject",0,376
"748","id0029",1,18,0,0,"AI","control",6,4,"CornflowerBlue","j","reject",0,297
"749","id0029",1,19,0,0,"AI","control",8,2,"CornflowerBlue","j","reject",0,487
"750","id0029",1,20,0,0,"human","control",9,1,"Orange","j","reject",0,375
"751","id0029",1,21,0,0,"AI","control",9,1,"CornflowerBlue","j","reject",0,455
"752","id0029",1,22,0,0,"human","control",7,3,"Orange","j","reject",0,390
"753","id0029",1,23,0,0,"AI","control",8,2,"CornflowerBlue","j","reject",0,518
"754","id0029",1,24,0,0,"human","control",8,2,"Orange","j","reject",0,539
"755","id0030",0,1,1,0,"practice","Practice",8,2,"black","j","reject",0,11851
"756","id0030",0,2,1,0,"practice","Practice",5,5,"black","f","accept",5,4770
"757","id0030",1,1,0,0,"AI","training_others",4,6,"CornflowerBlue","f","accept",6,3647
"758","id0030",1,2,0,0,"human","training_others",6,4,"Orange","f","accept",4,3603
"759","id0030",1,3,0,0,"AI","training_others",5,5,"CornflowerBlue","f","accept",5,1414
"760","id0030",1,4,0,0,"AI","training_others",4,6,"CornflowerBlue","f","accept",6,2268
"761","id0030",1,5,0,0,"human","training_others",4,6,"Orange","f","accept",6,431
"762","id0030",1,6,0,1,"AI","training_others",9,1,"CornflowerBlue","j","reject",0,5062
"763","id0030",1,7,0,0,"AI","training_others",8,2,"CornflowerBlue","j","reject",0,838
"764","id0030",1,8,0,0,"AI","training_others",9,1,"CornflowerBlue","j","reject",0,1722
"765","id0030",1,9,0,0,"AI","training_others",8,2,"CornflowerBlue","j","reject",0,5193
"766","id0030",1,10,0,0,"human","training_others",6,4,"Orange","f","accept",4,4786
"767","id0030",1,11,0,0,"human","training_others",7,3,"Orange","j","reject",0,1402
"768","id0030",1,12,0,0,"human","training_others",8,2,"Orange","j","reject",0,2601
"769","id0030",1,13,0,0,"human","training_others",7,3,"Orange","j","reject",0,21101
"770","id0030",1,14,0,0,"AI","training_others",7,3,"CornflowerBlue","j","reject",0,1760
"771","id0030",1,15,0,0,"human","training_others",5,5,"Orange","f","accept",5,1692
"772","id0030",1,16,0,0,"AI","training_others",6,4,"CornflowerBlue","f","accept",4,1523
"773","id0030",1,17,0,0,"human","training_others",5,5,"Orange","f","accept",5,766
"774","id0030",1,18,0,0,"AI","training_others",7,3,"CornflowerBlue","j","reject",0,583
"775","id0030",1,19,0,0,"human","training_others",8,2,"Orange","j","reject",0,2400
"776","id0030",1,20,0,0,"human","training_others",9,1,"Orange","j","reject",0,8492
"777","id0030",1,21,0,0,"AI","training_others",5,5,"CornflowerBlue","f","accept",5,469
"778","id0030",1,22,0,0,"human","training_others",4,6,"Orange","f","accept",6,1945
"779","id0030",1,23,0,0,"human","training_others",9,1,"Orange","j","reject",0,2084
"780","id0030",1,24,0,0,"AI","training_others",6,4,"CornflowerBlue","f","accept",4,1013
"781","id0031",0,1,1,0,"practice","Practice",6,4,"black","f","accept",4,3289
"782","id0031",0,2,1,0,"practice","Practice",2,8,"black","j","reject",0,2216
"783","id0031",1,1,0,0,"AI","control",4,6,"CornflowerBlue","f","accept",6,1067
"784","id0031",1,2,0,0,"AI","control",6,4,"CornflowerBlue","f","accept",4,1059
"785","id0031",1,3,0,0,"human","control",6,4,"Orange","f","accept",4,590
"786","id0031",1,4,0,0,"human","control",4,6,"Orange","f","accept",6,322
"787","id0031",1,5,0,0,"human","control",5,5,"Orange","f","accept",5,601
"788","id0031",1,6,0,0,"human","control",5,5,"Orange","f","accept",5,379
"789","id0031",1,7,0,0,"human","control",8,2,"Orange","j","reject",0,1736
"790","id0031",1,8,0,0,"AI","control",8,2,"CornflowerBlue","j","reject",0,897
"791","id0031",1,9,0,0,"human","control",9,1,"Orange","j","reject",0,1676
"792","id0031",1,10,0,0,"AI","control",7,3,"CornflowerBlue","j","reject",0,444
"793","id0031",1,11,0,1,"AI","control",5,5,"CornflowerBlue","f","accept",5,3674
"794","id0031",1,12,0,0,"human","control",6,4,"Orange","f","accept",4,7860
"795","id0031",1,13,0,0,"human","control",7,3,"Orange","j","reject",0,578
"796","id0031",1,14,0,0,"human","control",8,2,"Orange","j","reject",0,10266
"797","id0031",1,15,0,0,"AI","control",9,1,"CornflowerBlue","j","reject",0,8896
"798","id0031",1,16,0,0,"human","control",9,1,"Orange","j","reject",0,11323
"799","id0031",1,17,0,0,"AI","control",8,2,"CornflowerBlue","j","reject",0,28994
"800","id0031",1,18,0,0,"human","control",7,3,"Orange","j","reject",0,2216
"801","id0031",1,19,0,0,"AI","control",9,1,"CornflowerBlue","j","reject",0,489
"802","id0031",1,20,0,0,"AI","control",7,3,"CornflowerBlue","j","reject",0,963
"803","id0031",1,21,0,0,"human","control",4,6,"Orange","f","accept",6,4250
"804","id0031",1,22,0,0,"AI","control",6,4,"CornflowerBlue","f","accept",4,784
"805","id0031",1,23,0,0,"AI","control",5,5,"CornflowerBlue","f","accept",5,479
"806","id0031",1,24,0,0,"AI","control",4,6,"CornflowerBlue","f","accept",6,495
"807","id0032",0,1,1,0,"practice","Practice",5,5,"black","f","accept",5,459
"808","id0032",0,2,1,0,"practice","Practice",7,3,"black","f","accept",3,110
"809","id0032",1,1,0,0,"human","control",5,5,"CornflowerBlue","f","accept",5,236
"810","id0032",1,2,0,0,"AI","control",5,5,"Orange","f","accept",5,174
"811","id0032",1,3,0,0,"human","control",8,2,"CornflowerBlue","f","accept",2,106
"812","id0032",1,4,0,0,"AI","control",6,4,"Orange","f","accept",4,11
"813","id0032",1,5,0,0,"human","control",4,6,"CornflowerBlue","f","accept",6,10
"814","id0032",1,6,0,0,"human","control",6,4,"CornflowerBlue","f","accept",4,114
"815","id0032",1,7,0,0,"human","control",9,1,"CornflowerBlue","f","accept",1,226
"816","id0032",1,8,0,0,"AI","control",7,3,"Orange","f","accept",3,122
"817","id0032",1,9,0,0,"human","control",7,3,"CornflowerBlue","f","accept",3,99
"818","id0032",1,10,0,0,"human","control",8,2,"CornflowerBlue","f","accept",2,536
"819","id0032",1,11,0,0,"AI","control",6,4,"Orange","f","accept",4,133
"820","id0032",1,12,0,0,"AI","control",8,2,"Orange","f","accept",2,71
"821","id0032",1,13,0,0,"human","control",4,6,"CornflowerBlue","f","accept",6,86
"822","id0032",1,14,0,0,"AI","control",5,5,"Orange","f","accept",5,142
"823","id0032",1,15,0,1,"human","control",7,3,"CornflowerBlue","f","accept",3,206
"824","id0032",1,16,0,0,"AI","control",4,6,"Orange","f","accept",6,12
"825","id0032",1,17,0,0,"AI","control",8,2,"Orange","f","accept",2,63
"826","id0032",1,18,0,0,"AI","control",9,1,"Orange","f","accept",1,84
"827","id0032",1,19,0,0,"human","control",6,4,"CornflowerBlue","f","accept",4,1814
"828","id0032",1,20,0,0,"human","control",5,5,"CornflowerBlue","f","accept",5,661
"829","id0032",1,21,0,0,"AI","control",7,3,"Orange","f","accept",3,812
"830","id0032",1,22,0,0,"human","control",9,1,"CornflowerBlue","f","accept",1,708
"831","id0032",1,23,0,0,"AI","control",9,1,"Orange","f","accept",1,156
"832","id0032",1,24,0,0,"AI","control",4,6,"Orange","f","accept",6,227
"833","id0033",0,1,1,0,"practice","Practice",10,0,"black","j","reject",0,769
"834","id0033",0,2,1,0,"practice","Practice",1,9,"black","f","accept",9,186
"835","id0033",1,1,0,0,"human","training_others",8,2,"CornflowerBlue","j","reject",0,931
"836","id0033",1,2,0,0,"AI","training_others",4,6,"Orange","f","accept",6,820
"837","id0033",1,3,0,0,"AI","training_others",5,5,"Orange","f","accept",5,597
"838","id0033",1,4,0,0,"human","training_others",5,5,"CornflowerBlue","f","accept",5,395
"839","id0033",1,5,0,0,"human","training_others",4,6,"CornflowerBlue","f","accept",6,482
"840","id0033",1,6,0,0,"AI","training_others",6,4,"Orange","f","accept",4,420
"841","id0033",1,7,0,1,"AI","training_others",8,2,"Orange","j","reject",0,707
"842","id0033",1,8,0,0,"AI","training_others",8,2,"Orange","j","reject",0,381
"843","id0033",1,9,0,0,"human","training_others",7,3,"CornflowerBlue","f","accept",3,570
"844","id0033",1,10,0,0,"human","training_others",9,1,"CornflowerBlue","j","reject",0,471
"845","id0033",1,11,0,0,"AI","training_others",7,3,"Orange","f","accept",3,347
"846","id0033",1,12,0,0,"AI","training_others",5,5,"Orange","f","accept",5,316
"847","id0033",1,13,0,0,"AI","training_others",6,4,"Orange","f","accept",4,526
"848","id0033",1,14,0,0,"AI","training_others",7,3,"Orange","f","accept",3,331
"849","id0033",1,15,0,0,"human","training_others",5,5,"CornflowerBlue","f","accept",5,335
"850","id0033",1,16,0,0,"AI","training_others",9,1,"Orange","j","reject",0,355
"851","id0033",1,17,0,0,"human","training_others",9,1,"CornflowerBlue","j","reject",0,374
"852","id0033",1,18,0,0,"human","training_others",4,6,"CornflowerBlue","f","accept",6,427
"853","id0033",1,19,0,0,"AI","training_others",9,1,"Orange","j","reject",0,1360
"854","id0033",1,20,0,0,"AI","training_others",4,6,"Orange","f","accept",6,574
"855","id0033",1,21,0,0,"human","training_others",7,3,"CornflowerBlue","f","accept",3,349
"856","id0033",1,22,0,0,"human","training_others",6,4,"CornflowerBlue","f","accept",4,365
"857","id0033",1,23,0,0,"human","training_others",8,2,"CornflowerBlue","j","reject",0,788
"858","id0033",1,24,0,0,"human","training_others",6,4,"CornflowerBlue","f","accept",4,416
"859","id0034",0,1,1,0,"practice","Practice",4,6,"black","f","accept",6,1312
"860","id0034",0,2,1,0,"practice","Practice",9,1,"black","f","accept",1,2097
"861","id0034",1,1,0,0,"AI","training_others",8,2,"CornflowerBlue","f","accept",2,4992
"862","id0034",1,2,0,0,"AI","training_others",8,2,"CornflowerBlue","f","accept",2,1602
"863","id0034",1,3,0,0,"AI","training_others",4,6,"CornflowerBlue","f","accept",6,591
"864","id0034",1,4,0,0,"human","training_others",5,5,"Orange","f","accept",5,646
"865","id0034",1,5,0,0,"AI","training_others",4,6,"CornflowerBlue","f","accept",6,370
"866","id0034",1,6,0,0,"human","training_others",8,2,"Orange","f","accept",2,3101
"867","id0034",1,7,0,0,"AI","training_others",9,1,"CornflowerBlue","j","reject",0,9625
"868","id0034",1,8,0,0,"AI","training_others",7,3,"CornflowerBlue","f","accept",3,1849
"869","id0034",1,9,0,0,"human","training_others",7,3,"Orange","f","accept",3,462
"870","id0034",1,10,0,0,"human","training_others",9,1,"Orange","j","reject",0,327
"871","id0034",1,11,0,0,"human","training_others",6,4,"Orange","f","accept",4,492
"872","id0034",1,12,0,0,"AI","training_others",9,1,"CornflowerBlue","j","reject",0,319
"873","id0034",1,13,0,0,"AI","training_others",6,4,"CornflowerBlue","f","accept",4,382
"874","id0034",1,14,0,0,"human","training_others",6,4,"Orange","f","accept",4,594
"875","id0034",1,15,0,0,"AI","training_others",5,5,"CornflowerBlue","f","accept",5,480
"876","id0034",1,16,0,0,"AI","training_others",5,5,"CornflowerBlue","f","accept",5,360
"877","id0034",1,17,0,0,"AI","training_others",6,4,"CornflowerBlue","f","accept",4,1306
"878","id0034",1,18,0,0,"human","training_others",8,2,"Orange","f","accept",2,459
"879","id0034",1,19,0,0,"human","training_others",4,6,"Orange","f","accept",6,713
"880","id0034",1,20,0,1,"human","training_others",5,5,"Orange","f","accept",5,462
"881","id0034",1,21,0,0,"human","training_others",7,3,"Orange","f","accept",3,862
"882","id0034",1,22,0,0,"AI","training_others",7,3,"CornflowerBlue","f","accept",3,416
"883","id0034",1,23,0,0,"human","training_others",9,1,"Orange","j","reject",0,468
"884","id0034",1,24,0,0,"human","training_others",4,6,"Orange","f","accept",6,477
"885","id0035",0,1,1,0,"practice","Practice",6,4,"black","f","accept",4,6922
"886","id0035",0,2,1,0,"practice","Practice",10,0,"black","j","reject",0,2038
"887","id0035",1,1,0,0,"AI","training_others",9,1,"Orange","j","reject",0,884
"888","id0035",1,2,0,0,"AI","training_others",8,2,"Orange","j","reject",0,1264
"889","id0035",1,3,0,0,"human","training_others",8,2,"CornflowerBlue","j","reject",0,383
"890","id0035",1,4,0,0,"human","training_others",4,6,"CornflowerBlue","f","accept",6,1702
"891","id0035",1,5,0,0,"AI","training_others",5,5,"Orange","f","accept",5,2902
"892","id0035",1,6,0,0,"AI","training_others",7,3,"Orange","j","reject",0,682
"893","id0035",1,7,0,0,"AI","training_others",6,4,"Orange","j","reject",0,1184
"894","id0035",1,8,0,0,"human","training_others",7,3,"CornflowerBlue","f","accept",3,4
"895","id0035",1,9,0,0,"AI","training_others",8,2,"Orange","j","reject",0,349
"896","id0035",1,10,0,0,"human","training_others",9,1,"CornflowerBlue","j","reject",0,329
"897","id0035",1,11,0,0,"AI","training_others",6,4,"Orange","f","accept",4,26
"898","id0035",1,12,0,0,"human","training_others",9,1,"CornflowerBlue","j","reject",0,419
"899","id0035",1,13,0,0,"human","training_others",6,4,"CornflowerBlue","f","accept",4,397
"900","id0035",1,14,0,0,"human","training_others",8,2,"CornflowerBlue","j","reject",0,30684
"901","id0035",1,15,0,0,"human","training_others",7,3,"CornflowerBlue","j","reject",0,976
"902","id0035",1,16,0,0,"AI","training_others",7,3,"Orange","j","reject",0,1404
"903","id0035",1,17,0,0,"human","training_others",5,5,"CornflowerBlue","f","accept",5,3527
"904","id0035",1,18,0,0,"AI","training_others",4,6,"Orange","f","accept",6,865
"905","id0035",1,19,0,0,"AI","training_others",5,5,"Orange","f","accept",5,392
"906","id0035",1,20,0,0,"human","training_others",4,6,"CornflowerBlue","f","accept",6,391
"907","id0035",1,21,0,0,"AI","training_others",4,6,"Orange","f","accept",6,556
"908","id0035",1,22,0,1,"AI","training_others",9,1,"Orange","j","reject",0,872
"909","id0035",1,23,0,0,"human","training_others",6,4,"CornflowerBlue","j","reject",0,1721
"910","id0035",1,24,0,0,"human","training_others",5,5,"CornflowerBlue","f","accept",5,477
"911","id0036",0,1,1,0,"practice","Practice",8,2,"black","j","reject",0,3121
"912","id0036",0,2,1,0,"practice","Practice",4,6,"black","f","accept",6,750
"913","id0036",1,1,0,0,"human","control",4,6,"Orange","f","accept",6,772
"914","id0036",1,2,0,0,"AI","control",8,2,"CornflowerBlue","j","reject",0,698
"915","id0036",1,3,0,0,"AI","control",9,1,"CornflowerBlue","j","reject",0,495
"916","id0036",1,4,0,0,"AI","control",6,4,"CornflowerBlue","f","accept",4,526
"917","id0036",1,5,0,0,"AI","control",9,1,"CornflowerBlue","j","reject",0,469
"918","id0036",1,6,0,0,"human","control",8,2,"Orange","j","reject",0,437
"919","id0036",1,7,0,0,"AI","control",4,6,"CornflowerBlue","f","accept",6,317
"920","id0036",1,8,0,0,"human","control",6,4,"Orange","f","accept",4,514
"921","id0036",1,9,0,0,"human","control",7,3,"Orange","j","reject",0,490
"922","id0036",1,10,0,0,"human","control",5,5,"Orange","f","accept",5,402
"923","id0036",1,11,0,0,"human","control",6,4,"Orange","f","accept",4,329
"924","id0036",1,12,0,0,"human","control",8,2,"Orange","j","reject",0,365
"925","id0036",1,13,0,1,"AI","control",5,5,"CornflowerBlue","f","accept",5,513
"926","id0036",1,14,0,0,"AI","control",4,6,"CornflowerBlue","f","accept",6,478
"927","id0036",1,15,0,0,"human","control",9,1,"Orange","j","reject",0,477
"928","id0036",1,16,0,0,"human","control",4,6,"Orange","f","accept",6,342
"929","id0036",1,17,0,0,"human","control",7,3,"Orange","j","reject",0,294
"930","id0036",1,18,0,0,"AI","control",5,5,"CornflowerBlue","f","accept",5,405
"931","id0036",1,19,0,0,"human","control",9,1,"Orange","j","reject",0,659
"932","id0036",1,20,0,0,"AI","control",8,2,"CornflowerBlue","j","reject",0,398
"933","id0036",1,21,0,0,"AI","control",6,4,"CornflowerBlue","f","accept",4,310
"934","id0036",1,22,0,0,"AI","control",7,3,"CornflowerBlue","j","reject",0,433
"935","id0036",1,23,0,0,"AI","control",7,3,"CornflowerBlue","j","reject",0,390
"936","id0036",1,24,0,0,"human","control",5,5,"Orange","f","accept",5,312
"937","id0037",0,1,1,0,"practice","Practice",5,5,"black","f","accept",5,43
"938","id0037",0,2,1,0,"practice","Practice",3,7,"black","f","accept",7,130
"939","id0037",1,1,0,0,"human","control",4,6,"CornflowerBlue","f","accept",6,658
"940","id0037",1,2,0,0,"AI","control",4,6,"Orange","f","accept",6,420
"941","id0037",1,3,0,0,"human","control",5,5,"CornflowerBlue","f","accept",5,359
"942","id0037",1,4,0,0,"human","control",7,3,"CornflowerBlue","j","reject",0,1078
"943","id0037",1,5,0,0,"AI","control",8,2,"Orange","f","accept",2,1080
"944","id0037",1,6,0,0,"human","control",9,1,"CornflowerBlue","j","reject",0,296
"945","id0037",1,7,0,0,"AI","control",9,1,"Orange","f","accept",1,396
"946","id0037",1,8,0,0,"AI","control",8,2,"Orange","f","accept",2,469
"947","id0037",1,9,0,0,"human","control",7,3,"CornflowerBlue","j","reject",0,188
"948","id0037",1,10,0,0,"human","control",8,2,"CornflowerBlue","j","reject",0,176
"949","id0037",1,11,0,0,"AI","control",7,3,"Orange","f","accept",3,164
"950","id0037",1,12,0,0,"AI","control",6,4,"Orange","f","accept",4,175
"951","id0037",1,13,0,0,"AI","control",9,1,"Orange","f","accept",1,367
"952","id0037",1,14,0,0,"AI","control",5,5,"Orange","f","accept",5,228
"953","id0037",1,15,0,0,"human","control",5,5,"CornflowerBlue","f","accept",5,34
"954","id0037",1,16,0,0,"human","control",6,4,"CornflowerBlue","f","accept",4,163
"955","id0037",1,17,0,0,"AI","control",4,6,"Orange","f","accept",6,360
"956","id0037",1,18,0,1,"AI","control",6,4,"Orange","f","accept",4,214
"957","id0037",1,19,0,0,"human","control",6,4,"CornflowerBlue","f","accept",4,72
"958","id0037",1,20,0,0,"AI","control",7,3,"Orange","f","accept",3,86
"959","id0037",1,21,0,0,"human","control",9,1,"CornflowerBlue","j","reject",0,337
"960","id0037",1,22,0,0,"human","control",4,6,"CornflowerBlue","f","accept",6,189
"961","id0037",1,23,0,0,"human","control",8,2,"CornflowerBlue","j","reject",0,93
"962","id0037",1,24,0,0,"AI","control",5,5,"Orange","f","accept",5,114
"963","id0038",0,1,1,0,"practice","Practice",8,2,"black","j","reject",0,669
"964","id0038",0,2,1,0,"practice","Practice",2,8,"black","f","accept",8,341
"965","id0038",1,1,0,0,"AI","control",8,2,"Orange","j","reject",0,345
"966","id0038",1,2,0,0,"AI","control",6,4,"Orange","f","accept",4,321
"967","id0038",1,3,0,0,"human","control",5,5,"CornflowerBlue","f","accept",5,358
"968","id0038",1,4,0,0,"AI","control",7,3,"Orange","f","accept",3,270
"969","id0038",1,5,0,0,"AI","control",9,1,"Orange","f","accept",1,321
"970","id0038",1,6,0,0,"human","control",6,4,"CornflowerBlue","f","accept",4,293
"971","id0038",1,7,0,0,"human","control",5,5,"CornflowerBlue","f","accept",5,325
"972","id0038",1,8,0,1,"human","control",4,6,"CornflowerBlue","f","accept",6,469
"973","id0038",1,9,0,0,"human","control",8,2,"CornflowerBlue","f","accept",2,298
"974","id0038",1,10,0,0,"human","control",4,6,"CornflowerBlue","f","accept",6,300
"975","id0038",1,11,0,0,"human","control",8,2,"CornflowerBlue","f","accept",2,364
"976","id0038",1,12,0,0,"human","control",9,1,"CornflowerBlue","f","accept",1,387
"977","id0038",1,13,0,0,"AI","control",4,6,"Orange","f","accept",6,282
"978","id0038",1,14,0,0,"AI","control",4,6,"Orange","f","accept",6,460
"979","id0038",1,15,0,0,"human","control",6,4,"CornflowerBlue","f","accept",4,264
"980","id0038",1,16,0,0,"AI","control",8,2,"Orange","f","accept",2,389
"981","id0038",1,17,0,0,"human","control",7,3,"CornflowerBlue","f","accept",3,276
"982","id0038",1,18,0,0,"human","control",7,3,"CornflowerBlue","f","accept",3,286
"983","id0038",1,19,0,0,"AI","control",6,4,"Orange","f","accept",4,327
"984","id0038",1,20,0,0,"AI","control",7,3,"Orange","f","accept",3,288
"985","id0038",1,21,0,0,"AI","control",5,5,"Orange","f","accept",5,292
"986","id0038",1,22,0,0,"AI","control",9,1,"Orange","f","accept",1,374
"987","id0038",1,23,0,0,"human","control",9,1,"CornflowerBlue","f","accept",1,451
"988","id0038",1,24,0,0,"AI","control",5,5,"Orange","f","accept",5,331
"989","id0039",0,1,1,0,"practice","Practice",5,5,"black","f","accept",5,3564
"990","id0039",0,2,1,0,"practice","Practice",1,9,"black","f","accept",9,2932
"991","id0039",1,1,0,0,"AI","training_others",7,3,"CornflowerBlue","f","accept",3,402
"992","id0039",1,2,0,0,"human","training_others",6,4,"Orange","f","accept",4,606
"993","id0039",1,3,0,1,"human","training_others",8,2,"Orange","f","accept",2,516
"994","id0039",1,4,0,0,"AI","training_others",9,1,"CornflowerBlue","j","reject",0,1322
"995","id0039",1,5,0,0,"human","training_others",8,2,"Orange","j","reject",0,239
"996","id0039",1,6,0,0,"AI","training_others",6,4,"CornflowerBlue","f","accept",4,1008
"997","id0039",1,7,0,0,"human","training_others",6,4,"Orange","f","accept",4,452
"998","id0039",1,8,0,0,"human","training_others",7,3,"Orange","f","accept",3,585
"999","id0039",1,9,0,0,"human","training_others",5,5,"Orange","f","accept",5,474
"1000","id0039",1,10,0,0,"AI","training_others",4,6,"CornflowerBlue","f","accept",6,356
"1001","id0039",1,11,0,0,"AI","training_others",5,5,"CornflowerBlue","f","accept",5,538
"1002","id0039",1,12,0,0,"human","training_others",4,6,"Orange","f","accept",6,529
"1003","id0039",1,13,0,0,"human","training_others",5,5,"Orange","f","accept",5,432
"1004","id0039",1,14,0,0,"human","training_others",7,3,"Orange","f","accept",3,654
"1005","id0039",1,15,0,0,"human","training_others",9,1,"Orange","j","reject",0,643
"1006","id0039",1,16,0,0,"AI","training_others",5,5,"CornflowerBlue","f","accept",5,535
"1007","id0039",1,17,0,0,"AI","training_others",4,6,"CornflowerBlue","f","accept",6,360
"1008","id0039",1,18,0,0,"AI","training_others",8,2,"CornflowerBlue","j","reject",0,992
"1009","id0039",1,19,0,0,"AI","training_others",6,4,"CornflowerBlue","f","accept",4,575
"1010","id0039",1,20,0,0,"AI","training_others",7,3,"CornflowerBlue","f","accept",3,365
"1011","id0039",1,21,0,0,"AI","training_others",9,1,"CornflowerBlue","j","reject",0,458
"1012","id0039",1,22,0,0,"human","training_others",9,1,"Orange","j","reject",0,372
"1013","id0039",1,23,0,0,"AI","training_others",8,2,"CornflowerBlue","j","reject",0,705
"1014","id0039",1,24,0,0,"human","training_others",4,6,"Orange","f","accept",6,350
"1015","id0040",0,1,1,0,"practice","Practice",5,5,"black","f","accept",5,756
"1016","id0040",0,2,1,0,"practice","Practice",8,2,"black","f","accept",2,314
"1017","id0040",1,1,0,1,"AI","training_others",4,6,"Orange","f","accept",6,751
"1018","id0040",1,2,0,0,"human","training_others",7,3,"CornflowerBlue","j","reject",0,1894
"1019","id0040",1,3,0,0,"AI","training_others",9,1,"Orange","j","reject",0,143
"1020","id0040",1,4,0,0,"human","training_others",8,2,"CornflowerBlue","j","reject",0,505
"1021","id0040",1,5,0,0,"AI","training_others",4,6,"Orange","f","accept",6,497
"1022","id0040",1,6,0,0,"AI","training_others",8,2,"Orange","j","reject",0,419
"1023","id0040",1,7,0,0,"human","training_others",6,4,"CornflowerBlue","f","accept",4,1050
"1024","id0040",1,8,0,0,"AI","training_others",8,2,"Orange","j","reject",0,513
"1025","id0040",1,9,0,0,"human","training_others",6,4,"CornflowerBlue","f","accept",4,343
"1026","id0040",1,10,0,0,"human","training_others",5,5,"CornflowerBlue","f","accept",5,407
"1027","id0040",1,11,0,0,"AI","training_others",7,3,"Orange","f","accept",3,353
"1028","id0040",1,12,0,0,"human","training_others",5,5,"CornflowerBlue","f","accept",5,321
"1029","id0040",1,13,0,0,"AI","training_others",7,3,"Orange","f","accept",3,157
"1030","id0040",1,14,0,0,"AI","training_others",6,4,"Orange","f","accept",4,206
"1031","id0040",1,15,0,0,"AI","training_others",5,5,"Orange","f","accept",5,682
"1032","id0040",1,16,0,0,"human","training_others",7,3,"CornflowerBlue","f","accept",3,417
"1033","id0040",1,17,0,0,"human","training_others",8,2,"CornflowerBlue","j","reject",0,344
"1034","id0040",1,18,0,0,"AI","training_others",5,5,"Orange","f","accept",5,948
"1035","id0040",1,19,0,0,"AI","training_others",6,4,"Orange","f","accept",4,442
"1036","id0040",1,20,0,0,"human","training_others",4,6,"CornflowerBlue","f","accept",6,366
"1037","id0040",1,21,0,0,"human","training_others",9,1,"CornflowerBlue","j","reject",0,791
"1038","id0040",1,22,0,0,"AI","training_others",9,1,"Orange","j","reject",0,783
"1039","id0040",1,23,0,0,"human","training_others",4,6,"CornflowerBlue","f","accept",6,346
"1040","id0040",1,24,0,0,"human","training_others",9,1,"CornflowerBlue","j","reject",0,486
"1041","id0041",0,1,1,0,"practice","Practice",7,3,"black","j","reject",0,1280
"1042","id0041",0,2,1,0,"practice","Practice",2,8,"black","f","accept",8,1752
"1043","id0041",1,1,0,0,"AI","control",4,6,"CornflowerBlue","f","accept",6,747
"1044","id0041",1,2,0,0,"human","control",4,6,"Orange","f","accept",6,664
"1045","id0041",1,3,0,0,"human","control",8,2,"Orange","j","reject",0,524
"1046","id0041",1,4,0,0,"human","control",5,5,"Orange","f","accept",5,740
"1047","id0041",1,5,0,0,"AI","control",7,3,"CornflowerBlue","j","reject",0,600
"1048","id0041",1,6,0,0,"AI","control",6,4,"CornflowerBlue","j","reject",0,623
"1049","id0041",1,7,0,0,"human","control",5,5,"Orange","f","accept",5,493
"1050","id0041",1,8,0,0,"human","control",9,1,"Orange","j","reject",0,491
"1051","id0041",1,9,0,0,"AI","control",8,2,"CornflowerBlue","j","reject",0,485
"1052","id0041",1,10,0,0,"human","control",7,3,"Orange","j","reject",0,594
"1053","id0041",1,11,0,0,"human","control",7,3,"Orange","j","reject",0,536
"1054","id0041",1,12,0,0,"AI","control",6,4,"CornflowerBlue","f","accept",4,515
"1055","id0041",1,13,0,0,"AI","control",7,3,"CornflowerBlue","f","accept",3,583
"1056","id0041",1,14,0,0,"AI","control",8,2,"CornflowerBlue","f","accept",2,560
"1057","id0041",1,15,0,0,"human","control",9,1,"Orange","j","reject",0,447
"1058","id0041",1,16,0,0,"AI","control",5,5,"CornflowerBlue","f","accept",5,529
"1059","id0041",1,17,0,0,"AI","control",9,1,"CornflowerBlue","j","reject",0,639
"1060","id0041",1,18,0,0,"human","control",6,4,"Orange","f","accept",4,473
"1061","id0041",1,19,0,0,"AI","control",4,6,"CornflowerBlue","f","accept",6,534
"1062","id0041",1,20,0,0,"human","control",6,4,"Orange","f","accept",4,432
"1063","id0041",1,21,0,1,"human","control",4,6,"Orange","f","accept",6,447
"1064","id0041",1,22,0,0,"AI","control",5,5,"CornflowerBlue","f","accept",5,494
"1065","id0041",1,23,0,0,"AI","control",9,1,"CornflowerBlue","j","reject",0,484
"1066","id0041",1,24,0,0,"human","control",8,2,"Orange","j","reject",0,441
"1067","id0042",0,1,1,0,"practice","Practice",6,4,"black","j","reject",0,2677
"1068","id0042",0,2,1,0,"practice","Practice",1,9,"black","f","accept",9,669
"1069","id0042",1,1,0,0,"AI","control",6,4,"Orange","f","accept",4,385
"1070","id0042",1,2,0,0,"human","control",5,5,"CornflowerBlue","f","accept",5,503
"1071","id0042",1,3,0,0,"AI","control",7,3,"Orange","j","reject",0,458
"1072","id0042",1,4,0,0,"AI","control",5,5,"Orange","f","accept",5,447
"1073","id0042",1,5,0,0,"AI","control",9,1,"Orange","j","reject",0,420
"1074","id0042",1,6,0,0,"human","control",7,3,"CornflowerBlue","j","reject",0,453
"1075","id0042",1,7,0,0,"human","control",8,2,"CornflowerBlue","j","reject",0,520
"1076","id0042",1,8,0,0,"human","control",4,6,"CornflowerBlue","f","accept",6,306
"1077","id0042",1,9,0,0,"AI","control",4,6,"Orange","j","reject",0,581
"1078","id0042",1,10,0,0,"AI","control",7,3,"Orange","j","reject",0,464
"1079","id0042",1,11,0,0,"human","control",7,3,"CornflowerBlue","j","reject",0,1135
"1080","id0042",1,12,0,0,"AI","control",6,4,"Orange","j","reject",0,1062
"1081","id0042",1,13,0,0,"AI","control",5,5,"Orange","f","accept",5,496
"1082","id0042",1,14,0,0,"AI","control",4,6,"Orange","f","accept",6,454
"1083","id0042",1,15,0,0,"AI","control",9,1,"Orange","j","reject",0,514
"1084","id0042",1,16,0,0,"AI","control",8,2,"Orange","j","reject",0,1091
"1085","id0042",1,17,0,0,"human","control",6,4,"CornflowerBlue","j","reject",0,1018
"1086","id0042",1,18,0,0,"human","control",9,1,"CornflowerBlue","j","reject",0,557
"1087","id0042",1,19,0,0,"human","control",5,5,"CornflowerBlue","f","accept",5,421
"1088","id0042",1,20,0,0,"human","control",4,6,"CornflowerBlue","f","accept",6,777
"1089","id0042",1,21,0,1,"human","control",9,1,"CornflowerBlue","j","reject",0,1176
"1090","id0042",1,22,0,0,"AI","control",8,2,"Orange","j","reject",0,862
"1091","id0042",1,23,0,0,"human","control",8,2,"CornflowerBlue","j","reject",0,1756
"1092","id0042",1,24,0,0,"human","control",6,4,"CornflowerBlue","j","reject",0,617
"1093","id0043",0,1,1,0,"practice","Practice",2,8,"black","f","accept",8,1606
"1094","id0043",0,2,1,0,"practice","Practice",5,5,"black","f","accept",5,630
"1095","id0043",1,1,0,0,"human","control",4,6,"CornflowerBlue","f","accept",6,1979
"1096","id0043",1,2,0,0,"human","control",5,5,"CornflowerBlue","f","accept",5,249
"1097","id0043",1,3,0,0,"AI","control",5,5,"Orange","f","accept",5,1008
"1098","id0043",1,4,0,0,"human","control",7,3,"CornflowerBlue","j","reject",0,201
"1099","id0043",1,5,0,0,"AI","control",7,3,"Orange","j","reject",0,1081
"1100","id0043",1,6,0,0,"human","control",4,6,"CornflowerBlue","f","accept",6,117
"1101","id0043",1,7,0,0,"AI","control",5,5,"Orange","f","accept",5,919
"1102","id0043",1,8,0,0,"human","control",9,1,"CornflowerBlue","j","reject",0,52
"1103","id0043",1,9,0,0,"AI","control",9,1,"Orange","j","reject",0,574
"1104","id0043",1,10,0,1,"AI","control",8,2,"Orange","j","reject",0,224
"1105","id0043",1,11,0,0,"human","control",6,4,"CornflowerBlue","f","accept",4,1688
"1106","id0043",1,12,0,0,"human","control",9,1,"CornflowerBlue","j","reject",0,408
"1107","id0043",1,13,0,0,"human","control",8,2,"CornflowerBlue","j","reject",0,382
"1108","id0043",1,14,0,0,"AI","control",4,6,"Orange","f","accept",6,274
"1109","id0043",1,15,0,0,"human","control",8,2,"CornflowerBlue","j","reject",0,556
"1110","id0043",1,16,0,0,"AI","control",4,6,"Orange","f","accept",6,340
"1111","id0043",1,17,0,0,"AI","control",7,3,"Orange","j","reject",0,371
"1112","id0043",1,18,0,0,"AI","control",6,4,"Orange","j","reject",0,1158
"1113","id0043",1,19,0,0,"human","control",7,3,"CornflowerBlue","j","reject",0,514
"1114","id0043",1,20,0,0,"human","control",6,4,"CornflowerBlue","j","reject",0,607
"1115","id0043",1,21,0,0,"AI","control",8,2,"Orange","j","reject",0,447
"1116","id0043",1,22,0,0,"human","control",5,5,"CornflowerBlue","f","accept",5,301
"1117","id0043",1,23,0,0,"AI","control",9,1,"Orange","j","reject",0,348
"1118","id0043",1,24,0,0,"AI","control",6,4,"Orange","f","accept",4,584
"1119","id0044",0,1,1,0,"practice","Practice",9,1,"black","f","accept",1,3749
"1120","id0044",0,2,1,0,"practice","Practice",8,2,"black","f","accept",2,379
"1121","id0044",1,1,0,0,"human","training_others",5,5,"Orange","f","accept",5,872
"1122","id0044",1,2,0,0,"AI","training_others",9,1,"CornflowerBlue","f","accept",1,423
"1123","id0044",1,3,0,0,"human","training_others",5,5,"Orange","f","accept",5,383
"1124","id0044",1,4,0,1,"human","training_others",9,1,"Orange","f","accept",1,600
"1125","id0044",1,5,0,0,"AI","training_others",8,2,"CornflowerBlue","f","accept",2,376
"1126","id0044",1,6,0,0,"human","training_others",4,6,"Orange","f","accept",6,492
"1127","id0044",1,7,0,0,"AI","training_others",6,4,"CornflowerBlue","f","accept",4,498
"1128","id0044",1,8,0,0,"human","training_others",6,4,"Orange","f","accept",4,741
"1129","id0044",1,9,0,0,"AI","training_others",4,6,"CornflowerBlue","f","accept",6,663
"1130","id0044",1,10,0,0,"AI","training_others",6,4,"CornflowerBlue","f","accept",4,992
"1131","id0044",1,11,0,0,"AI","training_others",4,6,"CornflowerBlue","f","accept",6,769
"1132","id0044",1,12,0,0,"AI","training_others",7,3,"CornflowerBlue","f","accept",3,818
"1133","id0044",1,13,0,0,"human","training_others",7,3,"Orange","f","accept",3,791
"1134","id0044",1,14,0,0,"human","training_others",9,1,"Orange","f","accept",1,878
"1135","id0044",1,15,0,0,"AI","training_others",7,3,"CornflowerBlue","f","accept",3,712
"1136","id0044",1,16,0,0,"AI","training_others",9,1,"CornflowerBlue","f","accept",1,837
"1137","id0044",1,17,0,0,"AI","training_others",5,5,"CornflowerBlue","f","accept",5,718
"1138","id0044",1,18,0,0,"human","training_others",4,6,"Orange","f","accept",6,851
"1139","id0044",1,19,0,0,"human","training_others",8,2,"Orange","f","accept",2,649
"1140","id0044",1,20,0,0,"AI","training_others",5,5,"CornflowerBlue","f","accept",5,412
"1141","id0044",1,21,0,0,"AI","training_others",8,2,"CornflowerBlue","f","accept",2,615
"1142","id0044",1,22,0,0,"human","training_others",6,4,"Orange","f","accept",4,521
"1143","id0044",1,23,0,0,"human","training_others",8,2,"Orange","f","accept",2,2117
"1144","id0044",1,24,0,0,"human","training_others",7,3,"Orange","f","accept",3,3184
"1145","id0045",0,1,1,0,"practice","Practice",3,7,"black","f","accept",7,485
"1146","id0045",0,2,1,0,"practice","Practice",3,7,"black","f","accept",7,700
"1147","id0045",1,1,0,0,"AI","control",5,5,"Orange","f","accept",5,631
"1148","id0045",1,2,0,0,"human","control",9,1,"CornflowerBlue","j","reject",0,675
"1149","id0045",1,3,0,0,"human","control",6,4,"CornflowerBlue","j","reject",0,711
"1150","id0045",1,4,0,0,"AI","control",5,5,"Orange","f","accept",5,691
"1151","id0045",1,5,0,0,"AI","control",8,2,"Orange","j","reject",0,868
"1152","id0045",1,6,0,0,"human","control",7,3,"CornflowerBlue","j","reject",0,717
"1153","id0045",1,7,0,0,"AI","control",7,3,"Orange","j","reject",0,1118
"1154","id0045",1,8,0,0,"human","control",7,3,"CornflowerBlue","j","reject",0,568
"1155","id0045",1,9,0,0,"human","control",8,2,"CornflowerBlue","j","reject",0,1084
"1156","id0045",1,10,0,0,"human","control",4,6,"CornflowerBlue","f","accept",6,1307
"1157","id0045",1,11,0,1,"human","control",4,6,"CornflowerBlue","f","accept",6,1754
"1158","id0045",1,12,0,0,"AI","control",9,1,"Orange","j","reject",0,588
"1159","id0045",1,13,0,0,"AI","control",8,2,"Orange","j","reject",0,1485
"1160","id0045",1,14,0,0,"human","control",8,2,"CornflowerBlue","j","reject",0,1575
"1161","id0045",1,15,0,0,"AI","control",7,3,"Orange","j","reject",0,919
"1162","id0045",1,16,0,0,"human","control",6,4,"CornflowerBlue","j","reject",0,1016
"1163","id0045",1,17,0,0,"human","control",5,5,"CornflowerBlue","f","accept",5,566
"1164","id0045",1,18,0,0,"AI","control",4,6,"Orange","f","accept",6,5469
"1165","id0045",1,19,0,0,"AI","control",4,6,"Orange","f","accept",6,946
"1166","id0045",1,20,0,0,"AI","control",6,4,"Orange","j","reject",0,1061
"1167","id0045",1,21,0,0,"human","control",5,5,"CornflowerBlue","f","accept",5,716
"1168","id0045",1,22,0,0,"AI","control",9,1,"Orange","j","reject",0,1427
"1169","id0045",1,23,0,0,"AI","control",6,4,"Orange","j","reject",0,2834
"1170","id0045",1,24,0,0,"human","control",9,1,"CornflowerBlue","j","reject",0,2055
"1171","id0046",0,1,1,0,"practice","Practice",7,3,"black","f","accept",3,992
"1172","id0046",0,2,1,0,"practice","Practice",9,1,"black","f","accept",1,635
"1173","id0046",1,1,0,0,"human","training_others",5,5,"Orange","f","accept",5,398
"1174","id0046",1,2,0,0,"human","training_others",8,2,"Orange","f","accept",2,541
"1175","id0046",1,3,0,0,"human","training_others",8,2,"Orange","f","accept",2,299
"1176","id0046",1,4,0,0,"human","training_others",7,3,"Orange","f","accept",3,343
"1177","id0046",1,5,0,0,"human","training_others",4,6,"Orange","f","accept",6,511
"1178","id0046",1,6,0,0,"AI","training_others",5,5,"CornflowerBlue","f","accept",5,1320
"1179","id0046",1,7,0,0,"AI","training_others",4,6,"CornflowerBlue","f","accept",6,493
"1180","id0046",1,8,0,0,"AI","training_others",8,2,"CornflowerBlue","f","accept",2,271
"1181","id0046",1,9,0,0,"AI","training_others",4,6,"CornflowerBlue","f","accept",6,338
"1182","id0046",1,10,0,0,"human","training_others",7,3,"Orange","f","accept",3,333
"1183","id0046",1,11,0,0,"human","training_others",6,4,"Orange","f","accept",4,345
"1184","id0046",1,12,0,0,"human","training_others",9,1,"Orange","f","accept",1,402
"1185","id0046",1,13,0,0,"AI","training_others",6,4,"CornflowerBlue","f","accept",4,432
"1186","id0046",1,14,0,0,"human","training_others",5,5,"Orange","f","accept",5,336
"1187","id0046",1,15,0,0,"AI","training_others",9,1,"CornflowerBlue","f","accept",1,477
"1188","id0046",1,16,0,0,"AI","training_others",5,5,"CornflowerBlue","f","accept",5,385
"1189","id0046",1,17,0,1,"AI","training_others",8,2,"CornflowerBlue","f","accept",2,453
"1190","id0046",1,18,0,0,"AI","training_others",7,3,"CornflowerBlue","f","accept",3,438
"1191","id0046",1,19,0,0,"human","training_others",9,1,"Orange","f","accept",1,490
"1192","id0046",1,20,0,0,"AI","training_others",6,4,"CornflowerBlue","f","accept",4,320
"1193","id0046",1,21,0,0,"human","training_others",6,4,"Orange","f","accept",4,198
"1194","id0046",1,22,0,0,"AI","training_others",7,3,"CornflowerBlue","f","accept",3,210
"1195","id0046",1,23,0,0,"AI","training_others",9,1,"CornflowerBlue","f","accept",1,686
"1196","id0046",1,24,0,0,"human","training_others",4,6,"Orange","f","accept",6,523
"1197","id0047",0,1,1,0,"practice","Practice",2,8,"black","f","accept",8,3113
"1198","id0047",0,2,1,0,"practice","Practice",5,5,"black","f","accept",5,592
"1199","id0047",1,1,0,0,"AI","control",8,2,"CornflowerBlue","j","reject",0,2499
"1200","id0047",1,2,0,0,"human","control",6,4,"Orange","f","accept",4,774
"1201","id0047",1,3,0,0,"AI","control",4,6,"CornflowerBlue","f","accept",6,674
"1202","id0047",1,4,0,0,"human","control",6,4,"Orange","f","accept",4,676
"1203","id0047",1,5,0,0,"AI","control",5,5,"CornflowerBlue","f","accept",5,376
"1204","id0047",1,6,0,0,"human","control",7,3,"Orange","f","accept",3,3972
"1205","id0047",1,7,0,0,"human","control",9,1,"Orange","j","reject",0,595
"1206","id0047",1,8,0,0,"AI","control",5,5,"CornflowerBlue","f","accept",5,264
"1207","id0047",1,9,0,0,"AI","control",9,1,"CornflowerBlue","j","reject",0,390
"1208","id0047",1,10,0,0,"human","control",5,5,"Orange","f","accept",5,335
"1209","id0047",1,11,0,0,"AI","control",9,1,"CornflowerBlue","j","reject",0,674
"1210","id0047",1,12,0,0,"AI","control",6,4,"CornflowerBlue","f","accept",4,668
"1211","id0047",1,13,0,0,"human","control",8,2,"Orange","j","reject",0,965
"1212","id0047",1,14,0,0,"human","control",9,1,"Orange","j","reject",0,614
"1213","id0047",1,15,0,0,"AI","control",4,6,"CornflowerBlue","f","accept",6,464
"1214","id0047",1,16,0,0,"human","control",5,5,"Orange","f","accept",5,459
"1215","id0047",1,17,0,0,"human","control",8,2,"Orange","j","reject",0,371
"1216","id0047",1,18,0,1,"human","control",4,6,"Orange","f","accept",6,330
"1217","id0047",1,19,0,0,"AI","control",6,4,"CornflowerBlue","f","accept",4,2212
"1218","id0047",1,20,0,0,"AI","control",8,2,"CornflowerBlue","j","reject",0,1770
"1219","id0047",1,21,0,0,"AI","control",7,3,"CornflowerBlue","f","accept",3,308
"1220","id0047",1,22,0,0,"human","control",4,6,"Orange","f","accept",6,287
"1221","id0047",1,23,0,0,"AI","control",7,3,"CornflowerBlue","f","accept",3,1548
"1222","id0047",1,24,0,0,"human","control",7,3,"Orange","f","accept",3,284
"1223","id0048",0,1,1,0,"practice","Practice",9,1,"black","f","accept",1,2259
"1224","id0048",0,2,1,0,"practice","Practice",9,1,"black","f","accept",1,1630
"1225","id0048",1,1,0,0,"human","training_others",9,1,"Orange","f","accept",1,1565
"1226","id0048",1,2,0,0,"human","training_others",8,2,"Orange","f","accept",2,364
"1227","id0048",1,3,0,0,"AI","training_others",7,3,"CornflowerBlue","f","accept",3,352
"1228","id0048",1,4,0,0,"AI","training_others",5,5,"CornflowerBlue","f","accept",5,332
"1229","id0048",1,5,0,0,"human","training_others",4,6,"Orange","f","accept",6,409
"1230","id0048",1,6,0,1,"AI","training_others",7,3,"CornflowerBlue","f","accept",3,661
"1231","id0048",1,7,0,0,"human","training_others",4,6,"Orange","f","accept",6,334
"1232","id0048",1,8,0,0,"AI","training_others",4,6,"CornflowerBlue","f","accept",6,347
"1233","id0048",1,9,0,0,"human","training_others",7,3,"Orange","f","accept",3,324
"1234","id0048",1,10,0,0,"AI","training_others",9,1,"CornflowerBlue","j","reject",0,444
"1235","id0048",1,11,0,0,"human","training_others",6,4,"Orange","f","accept",4,1095
"1236","id0048",1,12,0,0,"human","training_others",5,5,"Orange","f","accept",5,750
"1237","id0048",1,13,0,0,"human","training_others",5,5,"Orange","f","accept",5,285
"1238","id0048",1,14,0,0,"human","training_others",7,3,"Orange","f","accept",3,109
"1239","id0048",1,15,0,0,"human","training_others",6,4,"Orange","f","accept",4,280
"1240","id0048",1,16,0,0,"AI","training_others",4,6,"CornflowerBlue","f","accept",6,320
"1241","id0048",1,17,0,0,"AI","training_others",9,1,"CornflowerBlue","j","reject",0,281
"1242","id0048",1,18,0,0,"AI","training_others",6,4,"CornflowerBlue","f","accept",4,443
"1243","id0048",1,19,0,0,"AI","training_others",8,2,"CornflowerBlue","j","reject",0,1512
"1244","id0048",1,20,0,0,"human","training_others",9,1,"Orange","j","reject",0,405
"1245","id0048",1,21,0,0,"AI","training_others",5,5,"CornflowerBlue","f","accept",5,337
"1246","id0048",1,22,0,0,"human","training_others",8,2,"Orange","j","reject",0,388
"1247","id0048",1,23,0,0,"AI","training_others",6,4,"CornflowerBlue","f","accept",4,298
"1248","id0048",1,24,0,0,"AI","training_others",8,2,"CornflowerBlue","j","reject",0,302
"1249","id0049",0,1,1,0,"practice","Practice",5,5,"black","j","reject",0,2281
"1250","id0049",0,2,1,0,"practice","Practice",9,1,"black","f","accept",1,830
"1251","id0049",1,1,0,0,"human","control",9,1,"CornflowerBlue","j","reject",0,5557
