"","id","block","trial_number","practice_trial","random_trial","opponent","training_condition","proposer_offer","receiver_offer","color","response_key","response","outcome","reaction_time"
"1","id0001",0,1,1,0,"practice","Practice",8,2,"black","f","accept",2,3534
"2","id0001",0,2,1,0,"practice","Practice",1,9,"black","f","accept",9,603
"3","id0001",1,1,0,0,"human","training_self",6,4,"CornflowerBlue","f","accept",4,39
"4","id0001",1,2,0,0,"AI","training_self",6,4,"Orange","f","accept",4,532
"5","id0001",1,3,0,0,"AI","training_self",7,3,"Orange","f","accept",3,988
"6","id0001",1,4,0,0,"AI","training_self",9,1,"Orange","j","reject",0,230
"7","id0001",1,5,0,0,"human","training_self",8,2,"CornflowerBlue","j","reject",0,380
"8","id0001",1,6,0,0,"human","training_self",7,3,"CornflowerBlue","j","reject",0,29
"9","id0001",1,7,0,0,"AI","training_self",8,2,"Orange","j","reject",0,248
"10","id0001",1,8,0,0,"AI","training_self",4,6,"Orange","f","accept",6,396
"11","id0001",1,9,0,0,"human","training_self",4,6,"CornflowerBlue","f","accept",6,446
"12","id0001",1,10,0,0,"AI","training_self",5,5,"Orange","f","accept",5,275
"13","id0001",1,11,0,0,"human","training_self",5,5,"CornflowerBlue","f","accept",5,194
"14","id0001",1,12,0,0,"AI","training_self",8,2,"Orange","j","reject",0,73
"15","id0001",1,13,0,0,"human","training_self",4,6,"CornflowerBlue","j","reject",0,660
"16","id0001",1,14,0,1,"human","training_self",8,2,"CornflowerBlue","j","reject",0,283
"17","id0001",1,15,0,0,"human","training_self",9,1,"CornflowerBlue","j","reject",0,239
"18","id0001",1,16,0,0,"AI","training_self",5,5,"Orange","f","accept",5,72
"19","id0001",1,17,0,0,"AI","training_self",7,3,"Orange","j","reject",0,110
"20","id0001",1,18,0,0,"human","training_self",5,5,"CornflowerBlue","f","accept",5,448
"21","id0001",1,19,0,0,"human","training_self",9,1,"CornflowerBlue","j","reject",0,100
"22","id0001",1,20,0,0,"AI","training_self",6,4,"Orange","j","reject",0,826
"23","id0001",1,21,0,0,"human","training_self",7,3,"CornflowerBlue","j","reject",0,22
"24","id0001",1,22,0,0,"AI","training_self",4,6,"Orange","f","accept",6,413
"25","id0001",1,23,0,0,"AI","training_self",9,1,"Orange","j","reject",0,340
"26","id0001",1,24,0,0,"human","training_self",6,4,"CornflowerBlue","j","reject",0,224
"27","id0002",0,1,1,0,"practice","Practice",9,1,"black","j","reject",0,2376
"28","id0002",0,2,1,0,"practice","Practice",5,5,"black","f","accept",5,670
"29","id0002",1,1,0,0,"AI","training_self",9,1,"Orange","j","reject",0,3632
"30","id0002",1,2,0,0,"human","training_self",4,6,"CornflowerBlue","f","accept",6,1260
"31","id0002",1,3,0,0,"AI","training_self",9,1,"Orange","j","reject",0,4084
"32","id0002",1,4,0,0,"AI","training_self",6,4,"Orange","f","accept",4,971
"33","id0002",1,5,0,0,"human","training_self",8,2,"CornflowerBlue","j","reject",0,2198
"34","id0002",1,6,0,1,"human","training_self",9,1,"CornflowerBlue","j","reject",0,3168
"35","id0002",1,7,0,0,"human","training_self",9,1,"CornflowerBlue","j","reject",0,538
"36","id0002",1,8,0,0,"AI","training_self",4,6,"Orange","f","accept",6,516
"37","id0002",1,9,0,0,"AI","training_self",6,4,"Orange","f","accept",4,564
"38","id0002",1,10,0,0,"AI","training_self",5,5,"Orange","f","accept",5,513
"39","id0002",1,11,0,0,"human","training_self",6,4,"CornflowerBlue","f","accept",4,684
"40","id0002",1,12,0,0,"AI","training_self",8,2,"Orange","j","reject",0,507
"41","id0002",1,13,0,0,"AI","training_self",5,5,"Orange","f","accept",5,485
"42","id0002",1,14,0,0,"human","training_self",7,3,"CornflowerBlue","j","reject",0,2924
"43","id0002",1,15,0,0,"AI","training_self",7,3,"Orange","j","reject",0,334
"44","id0002",1,16,0,0,"human","training_self",5,5,"CornflowerBlue","f","accept",5,363
"45","id0002",1,17,0,0,"AI","training_self",4,6,"Orange","f","accept",6,825
"46","id0002",1,18,0,0,"human","training_self",8,2,"CornflowerBlue","j","reject",0,1933
"47","id0002",1,19,0,0,"human","training_self",6,4,"CornflowerBlue","f","accept",4,381
"48","id0002",1,20,0,0,"AI","training_self",7,3,"Orange","f","accept",3,3014
"49","id0002",1,21,0,0,"human","training_self",7,3,"CornflowerBlue","j","reject",0,318
"50","id0002",1,22,0,0,"human","training_self",5,5,"CornflowerBlue","f","accept",5,314
"51","id0002",1,23,0,0,"human","training_self",4,6,"CornflowerBlue","f","accept",6,433
"52","id0002",1,24,0,0,"AI","training_self",8,2,"Orange","j","reject",0,469
"53","id0003",0,1,1,0,"practice","Practice",2,8,"black","f","accept",8,1789
"54","id0003",0,2,1,0,"practice","Practice",7,3,"black","j","reject",0,855
"55","id0003",1,1,0,0,"AI","control",5,5,"Orange","f","accept",5,202
"56","id0003",1,2,0,0,"AI","control",5,5,"Orange","f","accept",5,990
"57","id0003",1,3,0,0,"human","control",7,3,"CornflowerBlue","j","reject",0,1131
"58","id0003",1,4,0,0,"human","control",6,4,"CornflowerBlue","j","reject",0,6212
"59","id0003",1,5,0,0,"AI","control",7,3,"Orange","j","reject",0,1045
"60","id0003",1,6,0,0,"AI","control",6,4,"Orange","f","accept",4,559
"61","id0003",1,7,0,0,"AI","control",8,2,"Orange","j","reject",0,883
"62","id0003",1,8,0,0,"AI","control",7,3,"Orange","j","reject",0,1455
"63","id0003",1,9,0,0,"human","control",6,4,"CornflowerBlue","f","accept",4,414
"64","id0003",1,10,0,1,"human","control",9,1,"CornflowerBlue","j","reject",0,1010
"65","id0003",1,11,0,0,"AI","control",4,6,"Orange","f","accept",6,1265
"66","id0003",1,12,0,0,"human","control",8,2,"CornflowerBlue","j","reject",0,736
"67","id0003",1,13,0,0,"human","control",9,1,"CornflowerBlue","j","reject",0,443
"68","id0003",1,14,0,0,"human","control",5,5,"CornflowerBlue","f","accept",5,457
"69","id0003",1,15,0,0,"human","control",5,5,"CornflowerBlue","f","accept",5,406
"70","id0003",1,16,0,0,"human","control",8,2,"CornflowerBlue","j","reject",0,757
"71","id0003",1,17,0,0,"AI","control",4,6,"Orange","f","accept",6,818
"72","id0003",1,18,0,0,"AI","control",6,4,"Orange","f","accept",4,863
"73","id0003",1,19,0,0,"AI","control",8,2,"Orange","j","reject",0,385
"74","id0003",1,20,0,0,"AI","control",9,1,"Orange","j","reject",0,284
"75","id0003",1,21,0,0,"human","control",4,6,"CornflowerBlue","f","accept",6,944
"76","id0003",1,22,0,0,"AI","control",9,1,"Orange","j","reject",0,1201
"77","id0003",1,23,0,0,"human","control",4,6,"CornflowerBlue","f","accept",6,407
"78","id0003",1,24,0,0,"human","control",7,3,"CornflowerBlue","j","reject",0,2303
"79","id0004",0,1,1,0,"practice","Practice",4,6,"black","f","accept",6,5993
"80","id0004",0,2,1,0,"practice","Practice",1,9,"black","f","accept",9,588
"81","id0004",1,1,0,0,"human","training_others",7,3,"Orange","j","reject",0,787
"82","id0004",1,2,0,0,"human","training_others",9,1,"Orange","j","reject",0,761
"83","id0004",1,3,0,0,"AI","training_others",9,1,"CornflowerBlue","j","reject",0,739
"84","id0004",1,4,0,0,"human","training_others",8,2,"Orange","j","reject",0,157
"85","id0004",1,5,0,0,"AI","training_others",9,1,"CornflowerBlue","j","reject",0,954
"86","id0004",1,6,0,0,"human","training_others",9,1,"Orange","j","reject",0,364
"87","id0004",1,7,0,0,"AI","training_others",7,3,"CornflowerBlue","j","reject",0,664
"88","id0004",1,8,0,0,"AI","training_others",7,3,"CornflowerBlue","j","reject",0,420
"89","id0004",1,9,0,0,"human","training_others",4,6,"Orange","f","accept",6,433
"90","id0004",1,10,0,0,"human","training_others",7,3,"Orange","j","reject",0,338
"91","id0004",1,11,0,0,"AI","training_others",6,4,"CornflowerBlue","j","reject",0,792
"92","id0004",1,12,0,0,"human","training_others",4,6,"Orange","f","accept",6,571
"93","id0004",1,13,0,0,"AI","training_others",4,6,"CornflowerBlue","f","accept",6,497
"94","id0004",1,14,0,0,"AI","training_others",6,4,"CornflowerBlue","j","reject",0,563
"95","id0004",1,15,0,0,"human","training_others",5,5,"Orange","f","accept",5,540
"96","id0004",1,16,0,0,"AI","training_others",4,6,"CornflowerBlue","f","accept",6,520
"97","id0004",1,17,0,0,"AI","training_others",5,5,"CornflowerBlue","f","accept",5,392
"98","id0004",1,18,0,0,"human","training_others",8,2,"Orange","j","reject",0,494
"99","id0004",1,19,0,0,"AI","training_others",5,5,"CornflowerBlue","f","accept",5,403
"100","id0004",1,20,0,1,"AI","training_others",8,2,"CornflowerBlue","j","reject",0,368
"101","id0004",1,21,0,0,"human","training_others",5,5,"Orange","f","accept",5,490
"102","id0004",1,22,0,0,"AI","training_others",8,2,"CornflowerBlue","j","reject",0,469
"103","id0004",1,23,0,0,"human","training_others",6,4,"Orange","j","reject",0,1542
"104","id0004",1,24,0,0,"human","training_others",6,4,"Orange","j","reject",0,469
"105","id0005",0,1,1,0,"practice","Practice",4,6,"black","f","accept",6,1106
"106","id0005",0,2,1,0,"practice","Practice",8,2,"black","j","reject",0,4261
"107","id0005",1,1,0,0,"human","control",6,4,"Orange","f","accept",4,676
"108","id0005",1,2,0,0,"AI","control",6,4,"CornflowerBlue","f","accept",4,503
"109","id0005",1,3,0,0,"human","control",8,2,"Orange","f","accept",2,397
"110","id0005",1,4,0,0,"AI","control",7,3,"CornflowerBlue","f","accept",3,4632
"111","id0005",1,5,0,0,"AI","control",6,4,"CornflowerBlue","f","accept",4,451
"112","id0005",1,6,0,0,"human","control",4,6,"Orange","f","accept",6,395
"113","id0005",1,7,0,0,"AI","control",4,6,"CornflowerBlue","f","accept",6,406
"114","id0005",1,8,0,1,"human","control",5,5,"Orange","f","accept",5,360
"115","id0005",1,9,0,0,"human","control",8,2,"Orange","j","reject",0,410
"116","id0005",1,10,0,0,"human","control",9,1,"Orange","j","reject",0,412
"117","id0005",1,11,0,0,"AI","control",9,1,"CornflowerBlue","j","reject",0,422
"118","id0005",1,12,0,0,"human","control",5,5,"Orange","f","accept",5,392
"119","id0005",1,13,0,0,"AI","control",4,6,"CornflowerBlue","f","accept",6,394
"120","id0005",1,14,0,0,"human","control",4,6,"Orange","f","accept",6,640
"121","id0005",1,15,0,0,"AI","control",8,2,"CornflowerBlue","j","reject",0,621
"122","id0005",1,16,0,0,"human","control",6,4,"Orange","j","reject",0,9160
"123","id0005",1,17,0,0,"human","control",9,1,"Orange","j","reject",0,511
"124","id0005",1,18,0,0,"AI","control",8,2,"CornflowerBlue","j","reject",0,352
"125","id0005",1,19,0,0,"human","control",7,3,"Orange","j","reject",0,381
"126","id0005",1,20,0,0,"AI","control",5,5,"CornflowerBlue","f","accept",5,350
"127","id0005",1,21,0,0,"AI","control",5,5,"CornflowerBlue","f","accept",5,332
"128","id0005",1,22,0,0,"AI","control",9,1,"CornflowerBlue","j","reject",0,410
"129","id0005",1,23,0,0,"AI","control",7,3,"CornflowerBlue","j","reject",0,343
"130","id0005",1,24,0,0,"human","control",7,3,"Orange","j","reject",0,324
"131","id0006",0,1,1,0,"practice","Practice",2,8,"black","f","accept",8,587
"132","id0006",0,2,1,0,"practice","Practice",4,6,"black","f","accept",6,422
"133","id0006",1,1,0,0,"AI","control",4,6,"CornflowerBlue","f","accept",6,475
"134","id0006",1,2,0,0,"AI","control",5,5,"CornflowerBlue","f","accept",5,441
"135","id0006",1,3,0,0,"human","control",9,1,"Orange","j","reject",0,753
"136","id0006",1,4,0,0,"AI","control",7,3,"CornflowerBlue","f","accept",3,442
"137","id0006",1,5,0,0,"human","control",9,1,"Orange","j","reject",0,524
"138","id0006",1,6,0,0,"AI","control",8,2,"CornflowerBlue","f","accept",2,472
"139","id0006",1,7,0,1,"AI","control",6,4,"CornflowerBlue","f","accept",4,276
"140","id0006",1,8,0,0,"human","control",7,3,"Orange","f","accept",3,116
"141","id0006",1,9,0,0,"AI","control",4,6,"CornflowerBlue","f","accept",6,406
"142","id0006",1,10,0,0,"AI","control",8,2,"CornflowerBlue","f","accept",2,104
"143","id0006",1,11,0,0,"human","control",8,2,"Orange","j","reject",0,512
"144","id0006",1,12,0,0,"human","control",5,5,"Orange","f","accept",5,292
"145","id0006",1,13,0,0,"AI","control",9,1,"CornflowerBlue","f","accept",1,451
"146","id0006",1,14,0,0,"human","control",6,4,"Orange","f","accept",4,284
"147","id0006",1,15,0,0,"human","control",5,5,"Orange","f","accept",5,475
"148","id0006",1,16,0,0,"AI","control",6,4,"CornflowerBlue","f","accept",4,267
"149","id0006",1,17,0,0,"human","control",6,4,"Orange","f","accept",4,337
"150","id0006",1,18,0,0,"human","control",7,3,"Orange","f","accept",3,265
"151","id0006",1,19,0,0,"AI","control",5,5,"CornflowerBlue","f","accept",5,249
"152","id0006",1,20,0,0,"AI","control",9,1,"CornflowerBlue","f","accept",1,286
"153","id0006",1,21,0,0,"human","control",4,6,"Orange","f","accept",6,245
"154","id0006",1,22,0,0,"human","control",8,2,"Orange","j","reject",0,244
"155","id0006",1,23,0,0,"AI","control",7,3,"CornflowerBlue","f","accept",3,240
"156","id0006",1,24,0,0,"human","control",4,6,"Orange","f","accept",6,261
"157","id0007",0,1,1,0,"practice","Practice",2,8,"black","f","accept",8,3130
"158","id0007",0,2,1,0,"practice","Practice",10,0,"black","j","reject",0,2969
"159","id0007",1,1,0,0,"human","training_self",6,4,"Orange","f","accept",4,3748
"160","id0007",1,2,0,0,"human","training_self",9,1,"Orange","j","reject",0,4487
"161","id0007",1,3,0,0,"AI","training_self",4,6,"CornflowerBlue","f","accept",6,1100
"162","id0007",1,4,0,0,"human","training_self",7,3,"Orange","f","accept",3,1192
"163","id0007",1,5,0,0,"AI","training_self",9,1,"CornflowerBlue","j","reject",0,667
"164","id0007",1,6,0,0,"AI","training_self",6,4,"CornflowerBlue","f","accept",4,1037
"165","id0007",1,7,0,0,"AI","training_self",4,6,"CornflowerBlue","f","accept",6,664
"166","id0007",1,8,0,0,"human","training_self",9,1,"Orange","j","reject",0,1725
"167","id0007",1,9,0,0,"AI","training_self",6,4,"CornflowerBlue","f","accept",4,521
"168","id0007",1,10,0,1,"AI","training_self",5,5,"CornflowerBlue","f","accept",5,438
"169","id0007",1,11,0,0,"AI","training_self",9,1,"CornflowerBlue","j","reject",0,1259
"170","id0007",1,12,0,0,"AI","training_self",7,3,"CornflowerBlue","f","accept",3,660
"171","id0007",1,13,0,0,"human","training_self",5,5,"Orange","f","accept",5,830
"172","id0007",1,14,0,0,"AI","training_self",7,3,"CornflowerBlue","f","accept",3,30
"173","id0007",1,15,0,0,"human","training_self",7,3,"Orange","f","accept",3,572
"174","id0007",1,16,0,0,"AI","training_self",8,2,"CornflowerBlue","f","accept",2,1704
"175","id0007",1,17,0,0,"human","training_self",8,2,"Orange","f","accept",2,694
"176","id0007",1,18,0,0,"human","training_self",4,6,"Orange","f","accept",6,135
"177","id0007",1,19,0,0,"AI","training_self",5,5,"CornflowerBlue","f","accept",5,473
"178","id0007",1,20,0,0,"human","training_self",5,5,"Orange","f","accept",5,548
"179","id0007",1,21,0,0,"human","training_self",6,4,"Orange","f","accept",4,1866
"180","id0007",1,22,0,0,"human","training_self",8,2,"Orange","f","accept",2,962
"181","id0007",1,23,0,0,"human","training_self",4,6,"Orange","f","accept",6,400
"182","id0007",1,24,0,0,"AI","training_self",8,2,"CornflowerBlue","f","accept",2,819
"183","id0008",0,1,1,0,"practice","Practice",5,5,"black","f","accept",5,824
"184","id0008",0,2,1,0,"practice","Practice",8,2,"black","j","reject",0,459
"185","id0008",1,1,0,0,"human","training_others",5,5,"CornflowerBlue","f","accept",5,751
"186","id0008",1,2,0,0,"human","training_others",9,1,"CornflowerBlue","j","reject",0,510
"187","id0008",1,3,0,0,"AI","training_others",6,4,"Orange","f","accept",4,539
"188","id0008",1,4,0,0,"human","training_others",4,6,"CornflowerBlue","f","accept",6,855
"189","id0008",1,5,0,0,"AI","training_others",4,6,"Orange","f","accept",6,213
"190","id0008",1,6,0,0,"human","training_others",9,1,"CornflowerBlue","j","reject",0,334
"191","id0008",1,7,0,0,"human","training_others",4,6,"CornflowerBlue","f","accept",6,407
"192","id0008",1,8,0,0,"AI","training_others",7,3,"Orange","j","reject",0,338
"193","id0008",1,9,0,0,"human","training_others",7,3,"CornflowerBlue","j","reject",0,391
"194","id0008",1,10,0,0,"human","training_others",8,2,"CornflowerBlue","j","reject",0,335
"195","id0008",1,11,0,1,"AI","training_others",6,4,"Orange","f","accept",4,543
"196","id0008",1,12,0,0,"human","training_others",5,5,"CornflowerBlue","f","accept",5,354
"197","id0008",1,13,0,0,"human","training_others",7,3,"CornflowerBlue","j","reject",0,1570
"198","id0008",1,14,0,0,"AI","training_others",5,5,"Orange","f","accept",5,390
"199","id0008",1,15,0,0,"human","training_others",6,4,"CornflowerBlue","f","accept",4,546
"200","id0008",1,16,0,0,"human","training_others",6,4,"CornflowerBlue","f","accept",4,412
"201","id0008",1,17,0,0,"AI","training_others",8,2,"Orange","j","reject",0,305
"202","id0008",1,18,0,0,"AI","training_others",9,1,"Orange","j","reject",0,402
"203","id0008",1,19,0,0,"AI","training_others",7,3,"Orange","j","reject",0,374
"204","id0008",1,20,0,0,"AI","training_others",9,1,"Orange","j","reject",0,518
"205","id0008",1,21,0,0,"human","training_others",8,2,"CornflowerBlue","j","reject",0,528
"206","id0008",1,22,0,0,"AI","training_others",8,2,"Orange","j","reject",0,398
"207","id0008",1,23,0,0,"AI","training_others",5,5,"Orange","f","accept",5,486
"208","id0008",1,24,0,0,"AI","training_others",4,6,"Orange","f","accept",6,420
"209","id0009",0,1,1,0,"practice","Practice",4,6,"black","f","accept",6,3110
"210","id0009",0,2,1,0,"practice","Practice",10,0,"black","j","reject",0,3713
"211","id0009",1,1,0,0,"human","training_others",4,6,"Orange","f","accept",6,1774
"212","id0009",1,2,0,0,"human","training_others",9,1,"Orange","j","reject",0,1957
"213","id0009",1,3,0,1,"human","training_others",5,5,"Orange","f","accept",5,678
"214","id0009",1,4,0,0,"AI","training_others",9,1,"CornflowerBlue","j","reject",0,841
"215","id0009",1,5,0,0,"human","training_others",6,4,"Orange","f","accept",4,1767
"216","id0009",1,6,0,0,"human","training_others",5,5,"Orange","f","accept",5,633
"217","id0009",1,7,0,0,"human","training_others",7,3,"Orange","f","accept",3,981
"218","id0009",1,8,0,0,"AI","training_others",9,1,"CornflowerBlue","j","reject",0,810
"219","id0009",1,9,0,0,"AI","training_others",6,4,"CornflowerBlue","j","reject",0,4437
"220","id0009",1,10,0,0,"human","training_others",8,2,"Orange","j","reject",0,906
"221","id0009",1,11,0,0,"AI","training_others",4,6,"CornflowerBlue","f","accept",6,587
"222","id0009",1,12,0,0,"human","training_others",6,4,"Orange","f","accept",4,1066
"223","id0009",1,13,0,0,"human","training_others",9,1,"Orange","j","reject",0,1083
"224","id0009",1,14,0,0,"human","training_others",7,3,"Orange","f","accept",3,3262
"225","id0009",1,15,0,0,"AI","training_others",7,3,"CornflowerBlue","j","reject",0,396
"226","id0009",1,16,0,0,"AI","training_others",8,2,"CornflowerBlue","j","reject",0,805
"227","id0009",1,17,0,0,"AI","training_others",5,5,"CornflowerBlue","f","accept",5,1183
"228","id0009",1,18,0,0,"AI","training_others",4,6,"CornflowerBlue","f","accept",6,800
"229","id0009",1,19,0,0,"AI","training_others",6,4,"CornflowerBlue","f","accept",4,2262
"230","id0009",1,20,0,0,"AI","training_others",8,2,"CornflowerBlue","j","reject",0,822
"231","id0009",1,21,0,0,"human","training_others",8,2,"Orange","j","reject",0,689
"232","id0009",1,22,0,0,"human","training_others",4,6,"Orange","f","accept",6,1258
"233","id0009",1,23,0,0,"AI","training_others",7,3,"CornflowerBlue","j","reject",0,596
"234","id0009",1,24,0,0,"AI","training_others",5,5,"CornflowerBlue","f","accept",5,659
"235","id0010",0,1,1,0,"practice","Practice",2,8,"black","f","accept",8,317
"236","id0010",0,2,1,0,"practice","Practice",2,8,"black","j","reject",0,569
"237","id0010",1,1,0,0,"AI","training_self",8,2,"CornflowerBlue","f","accept",2,911
"238","id0010",1,2,0,0,"AI","training_self",7,3,"CornflowerBlue","f","accept",3,971
"239","id0010",1,3,0,1,"human","training_self",5,5,"Orange","f","accept",5,578
"240","id0010",1,4,0,0,"AI","training_self",5,5,"CornflowerBlue","f","accept",5,576
"241","id0010",1,5,0,0,"human","training_self",8,2,"Orange","j","reject",0,957
"242","id0010",1,6,0,0,"AI","training_self",6,4,"CornflowerBlue","f","accept",4,494
"243","id0010",1,7,0,0,"AI","training_self",7,3,"CornflowerBlue","f","accept",3,983
"244","id0010",1,8,0,0,"AI","training_self",9,1,"CornflowerBlue","j","reject",0,530
"245","id0010",1,9,0,0,"AI","training_self",6,4,"CornflowerBlue","f","accept",4,632
"246","id0010",1,10,0,0,"AI","training_self",8,2,"CornflowerBlue","j","reject",0,479
"247","id0010",1,11,0,0,"human","training_self",4,6,"Orange","f","accept",6,479
"248","id0010",1,12,0,0,"human","training_self",7,3,"Orange","f","accept",3,605
"249","id0010",1,13,0,0,"AI","training_self",4,6,"CornflowerBlue","f","accept",6,709
"250","id0010",1,14,0,0,"AI","training_self",5,5,"CornflowerBlue","f","accept",5,339
"251","id0010",1,15,0,0,"human","training_self",9,1,"Orange","j","reject",0,515
"252","id0010",1,16,0,0,"AI","training_self",4,6,"CornflowerBlue","f","accept",6,381
"253","id0010",1,17,0,0,"human","training_self",6,4,"Orange","f","accept",4,418
"254","id0010",1,18,0,0,"human","training_self",9,1,"Orange","j","reject",0,570
"255","id0010",1,19,0,0,"human","training_self",7,3,"Orange","f","accept",3,498
"256","id0010",1,20,0,0,"human","training_self",8,2,"Orange","j","reject",0,551
"257","id0010",1,21,0,0,"human","training_self",6,4,"Orange","f","accept",4,429
"258","id0010",1,22,0,0,"AI","training_self",9,1,"CornflowerBlue","j","reject",0,404
"259","id0010",1,23,0,0,"human","training_self",5,5,"Orange","f","accept",5,360
"260","id0010",1,24,0,0,"human","training_self",4,6,"Orange","f","accept",6,626
"261","id0011",0,1,1,0,"practice","Practice",3,7,"black","j","reject",0,90
"262","id0011",0,2,1,0,"practice","Practice",9,1,"black","f","accept",1,0
"263","id0011",1,1,0,0,"human","training_self",8,2,"Orange","j","reject",0,737
"264","id0011",1,2,0,0,"AI","training_self",7,3,"CornflowerBlue","j","reject",0,1480
"265","id0011",1,3,0,0,"AI","training_self",7,3,"CornflowerBlue","j","reject",0,2427
"266","id0011",1,4,0,0,"human","training_self",7,3,"Orange","j","reject",0,742
"267","id0011",1,5,0,0,"human","training_self",5,5,"Orange","f","accept",5,1672
"268","id0011",1,6,0,0,"human","training_self",4,6,"Orange","f","accept",6,599
"269","id0011",1,7,0,0,"AI","training_self",9,1,"CornflowerBlue","j","reject",0,680
"270","id0011",1,8,0,0,"human","training_self",7,3,"Orange","j","reject",0,512
"271","id0011",1,9,0,0,"human","training_self",6,4,"Orange","j","reject",0,413
"272","id0011",1,10,0,0,"AI","training_self",5,5,"CornflowerBlue","f","accept",5,756
"273","id0011",1,11,0,0,"AI","training_self",5,5,"CornflowerBlue","f","accept",5,1032
"274","id0011",1,12,0,0,"human","training_self",9,1,"Orange","j","reject",0,2169
"275","id0011",1,13,0,0,"AI","training_self",4,6,"CornflowerBlue","j","reject",0,1802
"276","id0011",1,14,0,0,"AI","training_self",4,6,"CornflowerBlue","f","accept",6,13864
"277","id0011",1,15,0,0,"AI","training_self",8,2,"CornflowerBlue","j","reject",0,4916
"278","id0011",1,16,0,0,"AI","training_self",6,4,"CornflowerBlue","j","reject",0,3881
"279","id0011",1,17,0,0,"human","training_self",5,5,"Orange","f","accept",5,2218
"280","id0011",1,18,0,0,"AI","training_self",6,4,"CornflowerBlue","j","reject",0,1009
"281","id0011",1,19,0,0,"human","training_self",4,6,"Orange","f","accept",6,692
"282","id0011",1,20,0,0,"human","training_self",9,1,"Orange","j","reject",0,3086
"283","id0011",1,21,0,0,"AI","training_self",9,1,"CornflowerBlue","j","reject",0,1432
"284","id0011",1,22,0,0,"human","training_self",8,2,"Orange","j","reject",0,1290
"285","id0011",1,23,0,0,"AI","training_self",8,2,"CornflowerBlue","j","reject",0,1794
"286","id0011",1,24,0,1,"human","training_self",6,4,"Orange","j","reject",0,1471
"287","id0012",0,1,1,0,"practice","Practice",10,0,"black","j","reject",0,810
"288","id0012",0,2,1,0,"practice","Practice",2,8,"black","f","accept",8,356
"289","id0012",1,1,0,0,"human","training_others",6,4,"Orange","f","accept",4,1453
"290","id0012",1,2,0,0,"AI","training_others",4,6,"CornflowerBlue","f","accept",6,455
"291","id0012",1,3,0,0,"AI","training_others",6,4,"CornflowerBlue","f","accept",4,681
"292","id0012",1,4,0,0,"AI","training_others",5,5,"CornflowerBlue","f","accept",5,406
"293","id0012",1,5,0,0,"human","training_others",4,6,"Orange","f","accept",6,376
"294","id0012",1,6,0,0,"human","training_others",9,1,"Orange","j","reject",0,882
"295","id0012",1,7,0,0,"human","training_others",6,4,"Orange","f","accept",4,455
"296","id0012",1,8,0,0,"AI","training_others",4,6,"CornflowerBlue","f","accept",6,345
"297","id0012",1,9,0,0,"AI","training_others",7,3,"CornflowerBlue","j","reject",0,239
"298","id0012",1,10,0,0,"AI","training_others",9,1,"CornflowerBlue","j","reject",0,293
"299","id0012",1,11,0,0,"AI","training_others",8,2,"CornflowerBlue","j","reject",0,265
"300","id0012",1,12,0,0,"AI","training_others",5,5,"CornflowerBlue","f","accept",5,277
"301","id0012",1,13,0,0,"human","training_others",7,3,"Orange","j","reject",0,300
"302","id0012",1,14,0,0,"human","training_others",5,5,"Orange","f","accept",5,243
"303","id0012",1,15,0,0,"AI","training_others",6,4,"CornflowerBlue","f","accept",4,369
"304","id0012",1,16,0,0,"AI","training_others",7,3,"CornflowerBlue","j","reject",0,113
"305","id0012",1,17,0,0,"human","training_others",4,6,"Orange","f","accept",6,356
"306","id0012",1,18,0,0,"AI","training_others",8,2,"CornflowerBlue","j","reject",0,290
"307","id0012",1,19,0,0,"AI","training_others",9,1,"CornflowerBlue","j","reject",0,282
"308","id0012",1,20,0,0,"human","training_others",5,5,"Orange","f","accept",5,264
"309","id0012",1,21,0,0,"human","training_others",8,2,"Orange","j","reject",0,140
"310","id0012",1,22,0,0,"human","training_others",8,2,"Orange","j","reject",0,330
"311","id0012",1,23,0,0,"human","training_others",9,1,"Orange","j","reject",0,41
"312","id0012",1,24,0,1,"human","training_others",7,3,"Orange","j","reject",0,266
"313","id0013",0,1,1,0,"practice","Practice",4,6,"black","f","accept",6,749
"314","id0013",0,2,1,0,"practice","Practice",9,1,"black","f","accept",1,671
"315","id0013",1,1,0,0,"human","training_self",7,3,"Orange","f","accept",3,504
"316","id0013",1,2,0,0,"human","training_self",4,6,"Orange","f","accept",6,387
"317","id0013",1,3,0,0,"human","training_self",9,1,"Orange","f","accept",1,367
"318","id0013",1,4,0,0,"human","training_self",5,5,"Orange","f","accept",5,381
"319","id0013",1,5,0,0,"human","training_self",8,2,"Orange","f","accept",2,344
"320","id0013",1,6,0,0,"human","training_self",7,3,"Orange","f","accept",3,653
"321","id0013",1,7,0,0,"AI","training_self",6,4,"CornflowerBlue","f","accept",4,343
"322","id0013",1,8,0,0,"AI","training_self",4,6,"CornflowerBlue","f","accept",6,306
"323","id0013",1,9,0,0,"AI","training_self",5,5,"CornflowerBlue","f","accept",5,530
"324","id0013",1,10,0,0,"human","training_self",5,5,"Orange","f","accept",5,330
"325","id0013",1,11,0,1,"human","training_self",8,2,"Orange","f","accept",2,383
"326","id0013",1,12,0,0,"AI","training_self",7,3,"CornflowerBlue","f","accept",3,557
"327","id0013",1,13,0,0,"human","training_self",6,4,"Orange","f","accept",4,362
"328","id0013",1,14,0,0,"human","training_self",6,4,"Orange","j","reject",0,447
"329","id0013",1,15,0,0,"AI","training_self",8,2,"CornflowerBlue","j","reject",0,435
"330","id0013",1,16,0,0,"human","training_self",4,6,"Orange","j","reject",0,313
"331","id0013",1,17,0,0,"AI","training_self",9,1,"CornflowerBlue","j","reject",0,284
"332","id0013",1,18,0,0,"AI","training_self",6,4,"CornflowerBlue","j","reject",0,597
"333","id0013",1,19,0,0,"AI","training_self",9,1,"CornflowerBlue","j","reject",0,329
"334","id0013",1,20,0,0,"AI","training_self",4,6,"CornflowerBlue","f","accept",6,596
"335","id0013",1,21,0,0,"human","training_self",9,1,"Orange","j","reject",0,110
"336","id0013",1,22,0,0,"AI","training_self",5,5,"CornflowerBlue","f","accept",5,319
"337","id0013",1,23,0,0,"AI","training_self",7,3,"CornflowerBlue","j","reject",0,307
"338","id0013",1,24,0,0,"AI","training_self",8,2,"CornflowerBlue","j","reject",0,285
"339","id0014",0,1,1,0,"practice","Practice",4,6,"black","f","accept",6,1602
"340","id0014",0,2,1,0,"practice","Practice",10,0,"black","j","reject",0,1298
"341","id0014",1,1,0,0,"human","training_others",5,5,"CornflowerBlue","f","accept",5,1434
"342","id0014",1,2,0,0,"human","training_others",8,2,"CornflowerBlue","f","accept",2,716
"343","id0014",1,3,0,0,"AI","training_others",9,1,"Orange","j","reject",0,566
"344","id0014",1,4,0,0,"AI","training_others",5,5,"Orange","f","accept",5,1014
"345","id0014",1,5,0,0,"AI","training_others",8,2,"Orange","j","reject",0,1327
"346","id0014",1,6,0,0,"AI","training_others",7,3,"Orange","j","reject",0,372
"347","id0014",1,7,0,0,"AI","training_others",7,3,"Orange","j","reject",0,1233
"348","id0014",1,8,0,0,"human","training_others",9,1,"CornflowerBlue","j","reject",0,902
"349","id0014",1,9,0,0,"human","training_others",6,4,"CornflowerBlue","f","accept",4,966
"350","id0014",1,10,0,0,"human","training_others",8,2,"CornflowerBlue","j","reject",0,804
"351","id0014",1,11,0,0,"human","training_others",7,3,"CornflowerBlue","j","reject",0,1527
"352","id0014",1,12,0,0,"human","training_others",9,1,"CornflowerBlue","j","reject",0,727
"353","id0014",1,13,0,0,"AI","training_others",4,6,"Orange","f","accept",6,1528
"354","id0014",1,14,0,0,"AI","training_others",5,5,"Orange","f","accept",5,1074
"355","id0014",1,15,0,0,"human","training_others",6,4,"CornflowerBlue","f","accept",4,794
"356","id0014",1,16,0,0,"human","training_others",5,5,"CornflowerBlue","f","accept",5,676
"357","id0014",1,17,0,0,"human","training_others",4,6,"CornflowerBlue","f","accept",6,697
"358","id0014",1,18,0,1,"human","training_others",7,3,"CornflowerBlue","j","reject",0,751
"359","id0014",1,19,0,0,"AI","training_others",4,6,"Orange","f","accept",6,800
"360","id0014",1,20,0,0,"AI","training_others",6,4,"Orange","f","accept",4,938
"361","id0014",1,21,0,0,"AI","training_others",9,1,"Orange","j","reject",0,665
"362","id0014",1,22,0,0,"AI","training_others",8,2,"Orange","j","reject",0,683
"363","id0014",1,23,0,0,"AI","training_others",6,4,"Orange","f","accept",4,869
"364","id0014",1,24,0,0,"human","training_others",4,6,"CornflowerBlue","f","accept",6,794
"365","id0015",0,1,1,0,"practice","Practice",7,3,"black","f","accept",3,8049
"366","id0015",0,2,1,0,"practice","Practice",9,1,"black","j","reject",0,4245
"367","id0015",1,1,0,0,"AI","training_others",6,4,"CornflowerBlue","f","accept",4,6644
"368","id0015",1,2,0,0,"human","training_others",7,3,"Orange","j","reject",0,1135
"369","id0015",1,3,0,0,"AI","training_others",7,3,"CornflowerBlue","f","accept",3,6301
"370","id0015",1,4,0,0,"human","training_others",9,1,"Orange","j","reject",0,672
"371","id0015",1,5,0,0,"AI","training_others",4,6,"CornflowerBlue","f","accept",6,504
"372","id0015",1,6,0,0,"human","training_others",6,4,"Orange","f","accept",4,1779
"373","id0015",1,7,0,0,"human","training_others",7,3,"Orange","j","reject",0,661
"374","id0015",1,8,0,0,"human","training_others",5,5,"Orange","f","accept",5,469
"375","id0015",1,9,0,0,"human","training_others",8,2,"Orange","j","reject",0,433
"376","id0015",1,10,0,0,"human","training_others",5,5,"Orange","f","accept",5,420
"377","id0015",1,11,0,0,"AI","training_others",9,1,"CornflowerBlue","j","reject",0,2984
"378","id0015",1,12,0,0,"AI","training_others",7,3,"CornflowerBlue","f","accept",3,2176
"379","id0015",1,13,0,0,"AI","training_others",4,6,"CornflowerBlue","f","accept",6,370
"380","id0015",1,14,0,0,"AI","training_others",8,2,"CornflowerBlue","j","reject",0,786
"381","id0015",1,15,0,0,"human","training_others",9,1,"Orange","j","reject",0,706
"382","id0015",1,16,0,0,"human","training_others",4,6,"Orange","f","accept",6,414
"383","id0015",1,17,0,1,"AI","training_others",5,5,"CornflowerBlue","f","accept",5,431
"384","id0015",1,18,0,0,"human","training_others",6,4,"Orange","f","accept",4,1754
"385","id0015",1,19,0,0,"AI","training_others",6,4,"CornflowerBlue","f","accept",4,456
"386","id0015",1,20,0,0,"AI","training_others",8,2,"CornflowerBlue","j","reject",0,399
"387","id0015",1,21,0,0,"human","training_others",8,2,"Orange","j","reject",0,490
"388","id0015",1,22,0,0,"AI","training_others",5,5,"CornflowerBlue","f","accept",5,421
"389","id0015",1,23,0,0,"human","training_others",4,6,"Orange","f","accept",6,383
"390","id0015",1,24,0,0,"AI","training_others",9,1,"CornflowerBlue","j","reject",0,328
"391","id0016",0,1,1,0,"practice","Practice",10,0,"black","j","reject",0,422
"392","id0016",0,2,1,0,"practice","Practice",10,0,"black","j","reject",0,251
"393","id0016",1,1,0,0,"human","control",8,2,"Orange","j","reject",0,6274
"394","id0016",1,2,0,0,"human","control",5,5,"Orange","f","accept",5,6
"395","id0016",1,3,0,0,"AI","control",8,2,"CornflowerBlue","j","reject",0,4127
"396","id0016",1,4,0,0,"AI","control",6,4,"CornflowerBlue","f","accept",4,770
"397","id0016",1,5,0,0,"human","control",9,1,"Orange","j","reject",0,351
"398","id0016",1,6,0,0,"human","control",8,2,"Orange","j","reject",0,316
"399","id0016",1,7,0,0,"human","control",7,3,"Orange","f","accept",3,349
"400","id0016",1,8,0,0,"AI","control",5,5,"CornflowerBlue","f","accept",5,454
"401","id0016",1,9,0,0,"AI","control",7,3,"CornflowerBlue","f","accept",3,466
"402","id0016",1,10,0,1,"AI","control",9,1,"CornflowerBlue","j","reject",0,384
"403","id0016",1,11,0,0,"human","control",5,5,"Orange","f","accept",5,399
"404","id0016",1,12,0,0,"AI","control",6,4,"CornflowerBlue","f","accept",4,338
"405","id0016",1,13,0,0,"human","control",6,4,"Orange","f","accept",4,403
"406","id0016",1,14,0,0,"AI","control",8,2,"CornflowerBlue","j","reject",0,396
"407","id0016",1,15,0,0,"human","control",7,3,"Orange","f","accept",3,381
"408","id0016",1,16,0,0,"AI","control",4,6,"CornflowerBlue","f","accept",6,439
"409","id0016",1,17,0,0,"AI","control",9,1,"CornflowerBlue","j","reject",0,129
"410","id0016",1,18,0,0,"AI","control",4,6,"CornflowerBlue","f","accept",6,851
"411","id0016",1,19,0,0,"human","control",4,6,"Orange","f","accept",6,390
"412","id0016",1,20,0,0,"AI","control",7,3,"CornflowerBlue","f","accept",3,430
"413","id0016",1,21,0,0,"human","control",9,1,"Orange","j","reject",0,737
"414","id0016",1,22,0,0,"human","control",6,4,"Orange","f","accept",4,78
"415","id0016",1,23,0,0,"human","control",4,6,"Orange","f","accept",6,411
"416","id0016",1,24,0,0,"AI","control",5,5,"CornflowerBlue","f","accept",5,417
"417","id0017",0,1,1,0,"practice","Practice",1,9,"black","f","accept",9,1001
"418","id0017",0,2,1,0,"practice","Practice",2,8,"black","j","reject",0,510
"419","id0017",1,1,0,0,"human","training_self",6,4,"CornflowerBlue","f","accept",4,1594
"420","id0017",1,2,0,0,"AI","training_self",4,6,"Orange","f","accept",6,547
"421","id0017",1,3,0,0,"AI","training_self",7,3,"Orange","j","reject",0,438
"422","id0017",1,4,0,1,"AI","training_self",9,1,"Orange","j","reject",0,677
"423","id0017",1,5,0,0,"AI","training_self",8,2,"Orange","j","reject",0,556
"424","id0017",1,6,0,0,"human","training_self",5,5,"CornflowerBlue","f","accept",5,482
"425","id0017",1,7,0,0,"human","training_self",5,5,"CornflowerBlue","f","accept",5,681
"426","id0017",1,8,0,0,"AI","training_self",8,2,"Orange","j","reject",0,1198
"427","id0017",1,9,0,0,"AI","training_self",9,1,"Orange","j","reject",0,438
"428","id0017",1,10,0,0,"human","training_self",7,3,"CornflowerBlue","j","reject",0,390
"429","id0017",1,11,0,0,"AI","training_self",7,3,"Orange","j","reject",0,380
"430","id0017",1,12,0,0,"AI","training_self",6,4,"Orange","j","reject",0,1399
"431","id0017",1,13,0,0,"human","training_self",4,6,"CornflowerBlue","f","accept",6,435
"432","id0017",1,14,0,0,"human","training_self",9,1,"CornflowerBlue","j","reject",0,870
"433","id0017",1,15,0,0,"human","training_self",8,2,"CornflowerBlue","j","reject",0,472
"434","id0017",1,16,0,0,"human","training_self",6,4,"CornflowerBlue","j","reject",0,854
"435","id0017",1,17,0,0,"human","training_self",8,2,"CornflowerBlue","j","reject",0,1016
"436","id0017",1,18,0,0,"human","training_self",4,6,"CornflowerBlue","f","accept",6,398
"437","id0017",1,19,0,0,"AI","training_self",4,6,"Orange","j","reject",0,1275
"438","id0017",1,20,0,0,"AI","training_self",5,5,"Orange","f","accept",5,475
"439","id0017",1,21,0,0,"human","training_self",7,3,"CornflowerBlue","j","reject",0,390
"440","id0017",1,22,0,0,"AI","training_self",6,4,"Orange","j","reject",0,1388
"441","id0017",1,23,0,0,"human","training_self",9,1,"CornflowerBlue","j","reject",0,1136
"442","id0017",1,24,0,0,"AI","training_self",5,5,"Orange","f","accept",5,572
"443","id0018",0,1,1,0,"practice","Practice",10,0,"black","j","reject",0,2808
"444","id0018",0,2,1,0,"practice","Practice",3,7,"black","f","accept",7,971
"445","id0018",1,1,0,0,"AI","training_self",6,4,"CornflowerBlue","f","accept",4,2229
"446","id0018",1,2,0,0,"human","training_self",8,2,"Orange","j","reject",0,918
"447","id0018",1,3,0,0,"AI","training_self",4,6,"CornflowerBlue","f","accept",6,484
"448","id0018",1,4,0,0,"human","training_self",5,5,"Orange","f","accept",5,845
"449","id0018",1,5,0,0,"human","training_self",4,6,"Orange","f","accept",6,1390
"450","id0018",1,6,0,0,"AI","training_self",9,1,"CornflowerBlue","j","reject",0,1052
"451","id0018",1,7,0,0,"human","training_self",5,5,"Orange","f","accept",5,507
"452","id0018",1,8,0,0,"AI","training_self",5,5,"CornflowerBlue","f","accept",5,611
"453","id0018",1,9,0,0,"human","training_self",4,6,"Orange","f","accept",6,464
"454","id0018",1,10,0,1,"human","training_self",9,1,"Orange","j","reject",0,701
"455","id0018",1,11,0,0,"AI","training_self",8,2,"CornflowerBlue","j","reject",0,4009
"456","id0018",1,12,0,0,"AI","training_self",6,4,"CornflowerBlue","f","accept",4,497
"457","id0018",1,13,0,0,"AI","training_self",4,6,"CornflowerBlue","f","accept",6,411
"458","id0018",1,14,0,0,"AI","training_self",9,1,"CornflowerBlue","j","reject",0,346
"459","id0018",1,15,0,0,"AI","training_self",7,3,"CornflowerBlue","j","reject",0,422
"460","id0018",1,16,0,0,"human","training_self",7,3,"Orange","f","accept",3,438
"461","id0018",1,17,0,0,"human","training_self",8,2,"Orange","j","reject",0,483
"462","id0018",1,18,0,0,"human","training_self",7,3,"Orange","f","accept",3,314
"463","id0018",1,19,0,0,"human","training_self",9,1,"Orange","j","reject",0,453
"464","id0018",1,20,0,0,"human","training_self",6,4,"Orange","f","accept",4,363
"465","id0018",1,21,0,0,"AI","training_self",5,5,"CornflowerBlue","f","accept",5,446
"466","id0018",1,22,0,0,"AI","training_self",7,3,"CornflowerBlue","j","reject",0,2388
"467","id0018",1,23,0,0,"human","training_self",6,4,"Orange","f","accept",4,444
"468","id0018",1,24,0,0,"AI","training_self",8,2,"CornflowerBlue","j","reject",0,374
"469","id0019",0,1,1,0,"practice","Practice",2,8,"black","f","accept",8,1652
"470","id0019",0,2,1,0,"practice","Practice",9,1,"black","j","reject",0,514
"471","id0019",1,1,0,0,"AI","training_self",8,2,"CornflowerBlue","j","reject",0,584
"472","id0019",1,2,0,0,"AI","training_self",7,3,"CornflowerBlue","j","reject",0,357
"473","id0019",1,3,0,0,"AI","training_self",6,4,"CornflowerBlue","f","accept",4,497
"474","id0019",1,4,0,0,"human","training_self",7,3,"Orange","j","reject",0,790
"475","id0019",1,5,0,0,"human","training_self",9,1,"Orange","j","reject",0,823
"476","id0019",1,6,0,0,"human","training_self",5,5,"Orange","f","accept",5,498
"477","id0019",1,7,0,0,"human","training_self",5,5,"Orange","f","accept",5,439
"478","id0019",1,8,0,0,"human","training_self",8,2,"Orange","j","reject",0,539
"479","id0019",1,9,0,0,"AI","training_self",9,1,"CornflowerBlue","j","reject",0,411
"480","id0019",1,10,0,0,"AI","training_self",9,1,"CornflowerBlue","j","reject",0,506
"481","id0019",1,11,0,0,"human","training_self",4,6,"Orange","f","accept",6,427
"482","id0019",1,12,0,0,"human","training_self",4,6,"Orange","f","accept",6,350
"483","id0019",1,13,0,0,"human","training_self",6,4,"Orange","f","accept",4,370
"484","id0019",1,14,0,0,"AI","training_self",6,4,"CornflowerBlue","f","accept",4,415
"485","id0019",1,15,0,0,"human","training_self",8,2,"Orange","j","reject",0,470
"486","id0019",1,16,0,0,"AI","training_self",5,5,"CornflowerBlue","f","accept",5,429
"487","id0019",1,17,0,0,"human","training_self",7,3,"Orange","j","reject",0,454
"488","id0019",1,18,0,0,"human","training_self",9,1,"Orange","j","reject",0,354
"489","id0019",1,19,0,0,"human","training_self",6,4,"Orange","f","accept",4,430
"490","id0019",1,20,0,0,"AI","training_self",8,2,"CornflowerBlue","j","reject",0,504
"491","id0019",1,21,0,0,"AI","training_self",5,5,"CornflowerBlue","f","accept",5,360
"492","id0019",1,22,0,0,"AI","training_self",4,6,"CornflowerBlue","f","accept",6,547
"493","id0019",1,23,0,1,"AI","training_self",7,3,"CornflowerBlue","j","reject",0,982
"494","id0019",1,24,0,0,"AI","training_self",4,6,"CornflowerBlue","f","accept",6,390
"495","id0020",0,1,1,0,"practice","Practice",3,7,"black","f","accept",7,5788
"496","id0020",0,2,1,0,"practice","Practice",8,2,"black","f","accept",2,2191
"497","id0020",1,1,0,0,"human","training_others",4,6,"Orange","f","accept",6,5645
"498","id0020",1,2,0,0,"AI","training_others",5,5,"CornflowerBlue","f","accept",5,1647
"499","id0020",1,3,0,0,"AI","training_others",7,3,"CornflowerBlue","j","reject",0,2414
"500","id0020",1,4,0,0,"human","training_others",5,5,"Orange","f","accept",5,1658
"501","id0020",1,5,0,0,"human","training_others",5,5,"Orange","f","accept",5,126
"502","id0020",1,6,0,0,"AI","training_others",6,4,"CornflowerBlue","f","accept",4,869
"503","id0020",1,7,0,0,"human","training_others",6,4,"Orange","f","accept",4,503
"504","id0020",1,8,0,0,"human","training_others",8,2,"Orange","j","reject",0,24
"505","id0020",1,9,0,0,"AI","training_others",8,2,"CornflowerBlue","j","reject",0,469
"506","id0020",1,10,0,0,"AI","training_others",4,6,"CornflowerBlue","f","accept",6,937
"507","id0020",1,11,0,0,"human","training_others",9,1,"Orange","j","reject",0,372
"508","id0020",1,12,0,0,"human","training_others",7,3,"Orange","j","reject",0,854
"509","id0020",1,13,0,0,"AI","training_others",5,5,"CornflowerBlue","f","accept",5,3723
"510","id0020",1,14,0,0,"human","training_others",4,6,"Orange","f","accept",6,803
"511","id0020",1,15,0,0,"human","training_others",8,2,"Orange","j","reject",0,404
"512","id0020",1,16,0,0,"human","training_others",9,1,"Orange","j","reject",0,855
"513","id0020",1,17,0,0,"AI","training_others",4,6,"CornflowerBlue","f","accept",6,559
"514","id0020",1,18,0,0,"AI","training_others",9,1,"CornflowerBlue","j","reject",0,434
"515","id0020",1,19,0,1,"human","training_others",7,3,"Orange","j","reject",0,1101
"516","id0020",1,20,0,0,"AI","training_others",8,2,"CornflowerBlue","j","reject",0,1271
"517","id0020",1,21,0,0,"AI","training_others",6,4,"CornflowerBlue","f","accept",4,1114
"518","id0020",1,22,0,0,"AI","training_others",7,3,"CornflowerBlue","j","reject",0,1357
"519","id0020",1,23,0,0,"human","training_others",6,4,"Orange","f","accept",4,1678
"520","id0020",1,24,0,0,"AI","training_others",9,1,"CornflowerBlue","j","reject",0,793
"521","id0021",0,1,1,0,"practice","Practice",1,9,"black","f","accept",9,2534
"522","id0021",0,2,1,0,"practice","Practice",4,6,"black","f","accept",6,2257
"523","id0021",1,1,0,0,"human","training_self",4,6,"CornflowerBlue","f","accept",6,2302
"524","id0021",1,2,0,0,"human","training_self",9,1,"CornflowerBlue","j","reject",0,1961
"525","id0021",1,3,0,0,"AI","training_self",4,6,"Orange","f","accept",6,130
"526","id0021",1,4,0,0,"AI","training_self",8,2,"Orange","f","accept",2,4960
"527","id0021",1,5,0,0,"human","training_self",9,1,"CornflowerBlue","f","accept",1,1167
"528","id0021",1,6,0,0,"human","training_self",5,5,"CornflowerBlue","f","accept",5,1120
"529","id0021",1,7,0,0,"human","training_self",4,6,"CornflowerBlue","j","reject",0,548
"530","id0021",1,8,0,0,"human","training_self",7,3,"CornflowerBlue","f","accept",3,296
"531","id0021",1,9,0,0,"human","training_self",6,4,"CornflowerBlue","f","accept",4,414
"532","id0021",1,10,0,0,"human","training_self",6,4,"CornflowerBlue","f","accept",4,2529
"533","id0021",1,11,0,0,"AI","training_self",4,6,"Orange","j","reject",0,1960
"534","id0021",1,12,0,0,"human","training_self",5,5,"CornflowerBlue","f","accept",5,432
"535","id0021",1,13,0,0,"AI","training_self",6,4,"Orange","f","accept",4,562
"536","id0021",1,14,0,0,"AI","training_self",5,5,"Orange","f","accept",5,717
"537","id0021",1,15,0,0,"AI","training_self",7,3,"Orange","f","accept",3,459
"538","id0021",1,16,0,0,"human","training_self",8,2,"CornflowerBlue","f","accept",2,384
"539","id0021",1,17,0,0,"AI","training_self",8,2,"Orange","f","accept",2,519
"540","id0021",1,18,0,0,"AI","training_self",9,1,"Orange","f","accept",1,204
"541","id0021",1,19,0,0,"AI","training_self",6,4,"Orange","f","accept",4,430
"542","id0021",1,20,0,0,"AI","training_self",9,1,"Orange","f","accept",1,203
"543","id0021",1,21,0,1,"human","training_self",7,3,"CornflowerBlue","f","accept",3,429
"544","id0021",1,22,0,0,"human","training_self",8,2,"CornflowerBlue","f","accept",2,656
"545","id0021",1,23,0,0,"AI","training_self",7,3,"Orange","f","accept",3,3311
"546","id0021",1,24,0,0,"AI","training_self",5,5,"Orange","f","accept",5,788
"547","id0022",0,1,1,0,"practice","Practice",3,7,"black","f","accept",7,3384
"548","id0022",0,2,1,0,"practice","Practice",7,3,"black","f","accept",3,434
"549","id0022",1,1,0,0,"AI","training_others",7,3,"Orange","f","accept",3,819
"550","id0022",1,2,0,0,"AI","training_others",8,2,"Orange","j","reject",0,1030
"551","id0022",1,3,0,0,"human","training_others",4,6,"CornflowerBlue","f","accept",6,407
"552","id0022",1,4,0,0,"human","training_others",5,5,"CornflowerBlue","f","accept",5,518
"553","id0022",1,5,0,0,"human","training_others",7,3,"CornflowerBlue","j","reject",0,2376
"554","id0022",1,6,0,0,"AI","training_others",6,4,"Orange","f","accept",4,256
"555","id0022",1,7,0,0,"AI","training_others",9,1,"Orange","j","reject",0,294
"556","id0022",1,8,0,0,"human","training_others",8,2,"CornflowerBlue","j","reject",0,1120
"557","id0022",1,9,0,0,"human","training_others",5,5,"CornflowerBlue","f","accept",5,293
"558","id0022",1,10,0,1,"AI","training_others",8,2,"Orange","j","reject",0,285
"559","id0022",1,11,0,0,"human","training_others",9,1,"CornflowerBlue","j","reject",0,6
"560","id0022",1,12,0,0,"human","training_others",6,4,"CornflowerBlue","f","accept",4,317
"561","id0022",1,13,0,0,"AI","training_others",4,6,"Orange","f","accept",6,296
"562","id0022",1,14,0,0,"AI","training_others",5,5,"Orange","f","accept",5,362
"563","id0022",1,15,0,0,"AI","training_others",4,6,"Orange","f","accept",6,218
"564","id0022",1,16,0,0,"human","training_others",4,6,"CornflowerBlue","f","accept",6,307
"565","id0022",1,17,0,0,"human","training_others",8,2,"CornflowerBlue","j","reject",0,942
"566","id0022",1,18,0,0,"AI","training_others",5,5,"Orange","f","accept",5,132
"567","id0022",1,19,0,0,"human","training_others",7,3,"CornflowerBlue","j","reject",0,453
"568","id0022",1,20,0,0,"human","training_others",6,4,"CornflowerBlue","f","accept",4,286
"569","id0022",1,21,0,0,"AI","training_others",9,1,"Orange","j","reject",0,256
"570","id0022",1,22,0,0,"AI","training_others",7,3,"Orange","j","reject",0,438
"571","id0022",1,23,0,0,"human","training_others",9,1,"CornflowerBlue","j","reject",0,634
"572","id0022",1,24,0,0,"AI","training_others",6,4,"Orange","f","accept",4,635
"573","id0023",0,1,1,0,"practice","Practice",4,6,"black","f","accept",6,1155
"574","id0023",0,2,1,0,"practice","Practice",7,3,"black","f","accept",3,1204
"575","id0023",1,1,0,0,"human","training_others",5,5,"CornflowerBlue","f","accept",5,982
"576","id0023",1,2,0,0,"AI","training_others",9,1,"Orange","j","reject",0,502
"577","id0023",1,3,0,0,"AI","training_others",5,5,"Orange","f","accept",5,358
"578","id0023",1,4,0,1,"human","training_others",5,5,"CornflowerBlue","f","accept",5,445
"579","id0023",1,5,0,0,"human","training_others",4,6,"CornflowerBlue","f","accept",6,651
"580","id0023",1,6,0,0,"AI","training_others",6,4,"Orange","j","reject",0,488
"581","id0023",1,7,0,0,"AI","training_others",8,2,"Orange","j","reject",0,496
"582","id0023",1,8,0,0,"human","training_others",8,2,"CornflowerBlue","j","reject",0,440
"583","id0023",1,9,0,0,"AI","training_others",5,5,"Orange","f","accept",5,597
"584","id0023",1,10,0,0,"AI","training_others",4,6,"Orange","f","accept",6,666
"585","id0023",1,11,0,0,"AI","training_others",6,4,"Orange","f","accept",4,405
"586","id0023",1,12,0,0,"human","training_others",6,4,"CornflowerBlue","j","reject",0,639
"587","id0023",1,13,0,0,"AI","training_others",9,1,"Orange","j","reject",0,447
"588","id0023",1,14,0,0,"human","training_others",9,1,"CornflowerBlue","j","reject",0,389
"589","id0023",1,15,0,0,"AI","training_others",7,3,"Orange","j","reject",0,353
"590","id0023",1,16,0,0,"human","training_others",7,3,"CornflowerBlue","j","reject",0,340
"591","id0023",1,17,0,0,"human","training_others",4,6,"CornflowerBlue","f","accept",6,601
"592","id0023",1,18,0,0,"AI","training_others",4,6,"Orange","f","accept",6,403
"593","id0023",1,19,0,0,"AI","training_others",8,2,"Orange","j","reject",0,520
"594","id0023",1,20,0,0,"human","training_others",8,2,"CornflowerBlue","j","reject",0,406
"595","id0023",1,21,0,0,"human","training_others",7,3,"CornflowerBlue","j","reject",0,364
"596","id0023",1,22,0,0,"human","training_others",9,1,"CornflowerBlue","j","reject",0,381
"597","id0023",1,23,0,0,"human","training_others",6,4,"CornflowerBlue","f","accept",4,1363
"598","id0023",1,24,0,0,"AI","training_others",7,3,"Orange","j","reject",0,369
"599","id0024",0,1,1,0,"practice","Practice",8,2,"black","f","accept",2,3821
"600","id0024",0,2,1,0,"practice","Practice",3,7,"black","j","reject",0,9605
"601","id0024",1,1,0,0,"AI","control",8,2,"CornflowerBlue","f","accept",2,2393
"602","id0024",1,2,0,0,"human","control",6,4,"Orange","f","accept",4,4640
"603","id0024",1,3,0,0,"human","control",8,2,"Orange","f","accept",2,360
"604","id0024",1,4,0,0,"human","control",6,4,"Orange","f","accept",4,1953
"605","id0024",1,5,0,0,"human","control",4,6,"Orange","j","reject",0,1007
"606","id0024",1,6,0,0,"AI","control",4,6,"CornflowerBlue","j","reject",0,909
"607","id0024",1,7,0,0,"human","control",5,5,"Orange","f","accept",5,205
"608","id0024",1,8,0,0,"AI","control",8,2,"CornflowerBlue","f","accept",2,1539
"609","id0024",1,9,0,0,"AI","control",5,5,"CornflowerBlue","f","accept",5,2121
"610","id0024",1,10,0,0,"human","control",7,3,"Orange","f","accept",3,480
"611","id0024",1,11,0,0,"human","control",8,2,"Orange","f","accept",2,602
"612","id0024",1,12,0,0,"AI","control",5,5,"CornflowerBlue","f","accept",5,605
"613","id0024",1,13,0,0,"AI","control",7,3,"CornflowerBlue","f","accept",3,437
"614","id0024",1,14,0,0,"human","control",9,1,"Orange","f","accept",1,1162
"615","id0024",1,15,0,0,"human","control",5,5,"Orange","f","accept",5,913
"616","id0024",1,16,0,0,"AI","control",4,6,"CornflowerBlue","j","reject",0,804
"617","id0024",1,17,0,1,"AI","control",6,4,"CornflowerBlue","f","accept",4,430
"618","id0024",1,18,0,0,"AI","control",9,1,"CornflowerBlue","f","accept",1,651
"619","id0024",1,19,0,0,"AI","control",7,3,"CornflowerBlue","f","accept",3,634
"620","id0024",1,20,0,0,"human","control",4,6,"Orange","j","reject",0,538
"621","id0024",1,21,0,0,"human","control",9,1,"Orange","f","accept",1,825
"622","id0024",1,22,0,0,"human","control",7,3,"Orange","f","accept",3,816
"623","id0024",1,23,0,0,"AI","control",6,4,"CornflowerBlue","f","accept",4,408
"624","id0024",1,24,0,0,"AI","control",9,1,"CornflowerBlue","f","accept",1,504
"625","id0025",0,1,1,0,"practice","Practice",6,4,"black","f","accept",4,6220
"626","id0025",0,2,1,0,"practice","Practice",4,6,"black","f","accept",6,1262
"627","id0025",1,1,0,0,"human","training_self",6,4,"CornflowerBlue","f","accept",4,1457
"628","id0025",1,2,0,0,"human","training_self",4,6,"CornflowerBlue","f","accept",6,802
"629","id0025",1,3,0,0,"AI","training_self",8,2,"Orange","f","accept",2,196
"630","id0025",1,4,0,0,"AI","training_self",4,6,"Orange","f","accept",6,629
"631","id0025",1,5,0,0,"AI","training_self",7,3,"Orange","f","accept",3,902
"632","id0025",1,6,0,0,"AI","training_self",6,4,"Orange","f","accept",4,948
"633","id0025",1,7,0,0,"human","training_self",7,3,"CornflowerBlue","f","accept",3,901
"634","id0025",1,8,0,0,"human","training_self",5,5,"CornflowerBlue","f","accept",5,587
"635","id0025",1,9,0,0,"human","training_self",7,3,"CornflowerBlue","f","accept",3,512
"636","id0025",1,10,0,0,"AI","training_self",9,1,"Orange","j","reject",0,2414
"637","id0025",1,11,0,0,"human","training_self",4,6,"CornflowerBlue","f","accept",6,536
"638","id0025",1,12,0,0,"AI","training_self",8,2,"Orange","f","accept",2,2297
"639","id0025",1,13,0,0,"AI","training_self",6,4,"Orange","f","accept",4,635
"640","id0025",1,14,0,0,"AI","training_self",7,3,"Orange","f","accept",3,846
"641","id0025",1,15,0,1,"human","training_self",6,4,"CornflowerBlue","f","accept",4,930
"642","id0025",1,16,0,0,"AI","training_self",9,1,"Orange","j","reject",0,1785
"643","id0025",1,17,0,0,"human","training_self",5,5,"CornflowerBlue","f","accept",5,677
"644","id0025",1,18,0,0,"human","training_self",9,1,"CornflowerBlue","j","reject",0,715
"645","id0025",1,19,0,0,"AI","training_self",4,6,"Orange","f","accept",6,816
"646","id0025",1,20,0,0,"human","training_self",8,2,"CornflowerBlue","f","accept",2,694
"647","id0025",1,21,0,0,"human","training_self",9,1,"CornflowerBlue","j","reject",0,840
"648","id0025",1,22,0,0,"AI","training_self",5,5,"Orange","f","accept",5,649
"649","id0025",1,23,0,0,"AI","training_self",5,5,"Orange","f","accept",5,525
"650","id0025",1,24,0,0,"human","training_self",8,2,"CornflowerBlue","j","reject",0,432
"651","id0026",0,1,1,0,"practice","Practice",1,9,"black","f","accept",9,2926
"652","id0026",0,2,1,0,"practice","Practice",3,7,"black","j","reject",0,2266
"653","id0026",1,1,0,0,"AI","control",8,2,"CornflowerBlue","j","reject",0,829
"654","id0026",1,2,0,0,"human","control",5,5,"Orange","f","accept",5,1668
"655","id0026",1,3,0,0,"human","control",8,2,"Orange","j","reject",0,288
"656","id0026",1,4,0,0,"human","control",8,2,"Orange","j","reject",0,1196
"657","id0026",1,5,0,0,"AI","control",5,5,"CornflowerBlue","f","accept",5,834
"658","id0026",1,6,0,0,"AI","control",4,6,"CornflowerBlue","f","accept",6,277
"659","id0026",1,7,0,0,"AI","control",9,1,"CornflowerBlue","j","reject",0,467
"660","id0026",1,8,0,0,"AI","control",9,1,"CornflowerBlue","j","reject",0,298
"661","id0026",1,9,0,0,"human","control",6,4,"Orange","f","accept",4,521
"662","id0026",1,10,0,0,"AI","control",6,4,"CornflowerBlue","f","accept",4,215
"663","id0026",1,11,0,0,"human","control",5,5,"Orange","f","accept",5,202
"664","id0026",1,12,0,0,"AI","control",7,3,"CornflowerBlue","j","reject",0,446
"665","id0026",1,13,0,0,"AI","control",4,6,"CornflowerBlue","f","accept",6,262
"666","id0026",1,14,0,0,"human","control",4,6,"Orange","f","accept",6,244
"667","id0026",1,15,0,0,"human","control",6,4,"Orange","f","accept",4,357
"668","id0026",1,16,0,1,"AI","control",8,2,"CornflowerBlue","j","reject",0,513
"669","id0026",1,17,0,0,"AI","control",6,4,"CornflowerBlue","f","accept",4,347
"670","id0026",1,18,0,0,"AI","control",7,3,"CornflowerBlue","j","reject",0,854
"671","id0026",1,19,0,0,"human","control",4,6,"Orange","f","accept",6,484
"672","id0026",1,20,0,0,"human","control",9,1,"Orange","j","reject",0,399
"673","id0026",1,21,0,0,"human","control",9,1,"Orange","j","reject",0,178
"674","id0026",1,22,0,0,"human","control",7,3,"Orange","j","reject",0,682
"675","id0026",1,23,0,0,"human","control",7,3,"Orange","j","reject",0,715
"676","id0026",1,24,0,0,"AI","control",5,5,"CornflowerBlue","f","accept",5,375
"677","id0027",0,1,1,0,"practice","Practice",6,4,"black","f","accept",4,620
"678","id0027",0,2,1,0,"practice","Practice",5,5,"black","f","accept",5,452
"679","id0027",1,1,0,0,"human","training_self",9,1,"CornflowerBlue","j","reject",0,604
"680","id0027",1,2,0,0,"AI","training_self",6,4,"Orange","f","accept",4,193
"681","id0027",1,3,0,0,"AI","training_self",4,6,"Orange","f","accept",6,396
"682","id0027",1,4,0,0,"human","training_self",4,6,"CornflowerBlue","f","accept",6,274
"683","id0027",1,5,0,0,"human","training_self",8,2,"CornflowerBlue","j","reject",0,516
"684","id0027",1,6,0,0,"human","training_self",8,2,"CornflowerBlue","j","reject",0,456
"685","id0027",1,7,0,0,"AI","training_self",5,5,"Orange","f","accept",5,89
"686","id0027",1,8,0,0,"human","training_self",7,3,"CornflowerBlue","f","accept",3,289
"687","id0027",1,9,0,0,"human","training_self",4,6,"CornflowerBlue","f","accept",6,520
"688","id0027",1,10,0,0,"AI","training_self",7,3,"Orange","f","accept",3,182
"689","id0027",1,11,0,0,"AI","training_self",8,2,"Orange","j","reject",0,334
"690","id0027",1,12,0,0,"AI","training_self",9,1,"Orange","j","reject",0,442
"691","id0027",1,13,0,0,"AI","training_self",5,5,"Orange","f","accept",5,355
"692","id0027",1,14,0,1,"human","training_self",5,5,"CornflowerBlue","f","accept",5,228
"693","id0027",1,15,0,0,"human","training_self",5,5,"CornflowerBlue","f","accept",5,262
"694","id0027",1,16,0,0,"human","training_self",9,1,"CornflowerBlue","j","reject",0,351
"695","id0027",1,17,0,0,"human","training_self",6,4,"CornflowerBlue","f","accept",4,257
"696","id0027",1,18,0,0,"AI","training_self",4,6,"Orange","f","accept",6,274
"697","id0027",1,19,0,0,"AI","training_self",9,1,"Orange","j","reject",0,269
"698","id0027",1,20,0,0,"AI","training_self",7,3,"Orange","j","reject",0,840
"699","id0027",1,21,0,0,"AI","training_self",8,2,"Orange","j","reject",0,591
"700","id0027",1,22,0,0,"human","training_self",6,4,"CornflowerBlue","f","accept",4,20
"701","id0027",1,23,0,0,"AI","training_self",6,4,"Orange","f","accept",4,666
"702","id0027",1,24,0,0,"human","training_self",7,3,"CornflowerBlue","f","accept",3,248
"703","id0028",0,1,1,0,"practice","Practice",7,3,"black","f","accept",3,1820
"704","id0028",0,2,1,0,"practice","Practice",7,3,"black","f","accept",3,616
"705","id0028",1,1,0,0,"human","training_self",4,6,"CornflowerBlue","f","accept",6,183
"706","id0028",1,2,0,0,"human","training_self",9,1,"CornflowerBlue","j","reject",0,753
"707","id0028",1,3,0,0,"AI","training_self",9,1,"Orange","j","reject",0,804
"708","id0028",1,4,0,0,"human","training_self",7,3,"CornflowerBlue","f","accept",3,393
"709","id0028",1,5,0,0,"human","training_self",7,3,"CornflowerBlue","f","accept",3,502
"710","id0028",1,6,0,0,"human","training_self",6,4,"CornflowerBlue","f","accept",4,495
"711","id0028",1,7,0,0,"AI","training_self",4,6,"Orange","f","accept",6,502
"712","id0028",1,8,0,0,"AI","training_self",5,5,"Orange","f","accept",5,379
"713","id0028",1,9,0,0,"human","training_self",9,1,"CornflowerBlue","j","reject",0,387
"714","id0028",1,10,0,0,"AI","training_self",4,6,"Orange","f","accept",6,353
"715","id0028",1,11,0,0,"AI","training_self",8,2,"Orange","j","reject",0,375
"716","id0028",1,12,0,0,"AI","training_self",5,5,"Orange","f","accept",5,435
"717","id0028",1,13,0,0,"AI","training_self",6,4,"Orange","f","accept",4,584
"718","id0028",1,14,0,0,"AI","training_self",7,3,"Orange","f","accept",3,575
"719","id0028",1,15,0,1,"AI","training_self",6,4,"Orange","f","accept",4,436
"720","id0028",1,16,0,0,"human","training_self",8,2,"CornflowerBlue","j","reject",0,341
"721","id0028",1,17,0,0,"human","training_self",4,6,"CornflowerBlue","f","accept",6,410
"722","id0028",1,18,0,0,"AI","training_self",9,1,"Orange","j","reject",0,351
"723","id0028",1,19,0,0,"AI","training_self",7,3,"Orange","f","accept",3,436
"724","id0028",1,20,0,0,"AI","training_self",8,2,"Orange","j","reject",0,411
"725","id0028",1,21,0,0,"human","training_self",8,2,"CornflowerBlue","j","reject",0,337
"726","id0028",1,22,0,0,"human","training_self",5,5,"CornflowerBlue","f","accept",5,351
"727","id0028",1,23,0,0,"human","training_self",6,4,"CornflowerBlue","f","accept",4,430
"728","id0028",1,24,0,0,"human","training_self",5,5,"CornflowerBlue","f","accept",5,460
"729","id0029",0,1,1,0,"practice","Practice",5,5,"black","f","accept",5,1148
"730","id0029",0,2,1,0,"practice","Practice",5,5,"black","f","accept",5,1244
"731","id0029",1,1,0,0,"AI","training_others",5,5,"Orange","f","accept",5,585
"732","id0029",1,2,0,0,"AI","training_others",7,3,"Orange","j","reject",0,1068
"733","id0029",1,3,0,0,"human","training_others",6,4,"CornflowerBlue","f","accept",4,4849
"734","id0029",1,4,0,0,"human","training_others",8,2,"CornflowerBlue","j","reject",0,420
"735","id0029",1,5,0,0,"human","training_others",4,6,"CornflowerBlue","f","accept",6,558
"736","id0029",1,6,0,0,"human","training_others",9,1,"CornflowerBlue","j","reject",0,490
"737","id0029",1,7,0,0,"AI","training_others",9,1,"Orange","j","reject",0,419
"738","id0029",1,8,0,0,"human","training_others",4,6,"CornflowerBlue","f","accept",6,524
"739","id0029",1,9,0,0,"AI","training_others",8,2,"Orange","j","reject",0,453
"740","id0029",1,10,0,0,"AI","training_others",4,6,"Orange","f","accept",6,453
"741","id0029",1,11,0,1,"AI","training_others",4,6,"Orange","f","accept",6,369
"742","id0029",1,12,0,0,"human","training_others",7,3,"CornflowerBlue","j","reject",0,362
"743","id0029",1,13,0,0,"human","training_others",6,4,"CornflowerBlue","f","accept",4,428
"744","id0029",1,14,0,0,"human","training_others",5,5,"CornflowerBlue","f","accept",5,435
"745","id0029",1,15,0,0,"AI","training_others",6,4,"Orange","f","accept",4,394
"746","id0029",1,16,0,0,"human","training_others",7,3,"CornflowerBlue","j","reject",0,368
"747","id0029",1,17,0,0,"AI","training_others",6,4,"Orange","f","accept",4,297
"748","id0029",1,18,0,0,"AI","training_others",8,2,"Orange","j","reject",0,319
"749","id0029",1,19,0,0,"human","training_others",5,5,"CornflowerBlue","f","accept",5,267
"750","id0029",1,20,0,0,"AI","training_others",7,3,"Orange","j","reject",0,720
"751","id0029",1,21,0,0,"AI","training_others",5,5,"Orange","f","accept",5,303
"752","id0029",1,22,0,0,"human","training_others",9,1,"CornflowerBlue","j","reject",0,300
"753","id0029",1,23,0,0,"AI","training_others",9,1,"Orange","j","reject",0,467
"754","id0029",1,24,0,0,"human","training_others",8,2,"CornflowerBlue","j","reject",0,414
"755","id0030",0,1,1,0,"practice","Practice",3,7,"black","f","accept",7,2223
"756","id0030",0,2,1,0,"practice","Practice",8,2,"black","j","reject",0,495
"757","id0030",1,1,0,0,"AI","training_others",6,4,"Orange","f","accept",4,2275
"758","id0030",1,2,0,0,"human","training_others",9,1,"CornflowerBlue","j","reject",0,1243
"759","id0030",1,3,0,0,"AI","training_others",7,3,"Orange","j","reject",0,133
"760","id0030",1,4,0,0,"human","training_others",6,4,"CornflowerBlue","f","accept",4,591
"761","id0030",1,5,0,0,"AI","training_others",7,3,"Orange","j","reject",0,186
"762","id0030",1,6,0,0,"AI","training_others",5,5,"Orange","f","accept",5,510
"763","id0030",1,7,0,0,"human","training_others",4,6,"CornflowerBlue","f","accept",6,1081
"764","id0030",1,8,0,0,"AI","training_others",4,6,"Orange","f","accept",6,538
"765","id0030",1,9,0,0,"AI","training_others",6,4,"Orange","f","accept",4,682
"766","id0030",1,10,0,1,"AI","training_others",8,2,"Orange","j","reject",0,425
"767","id0030",1,11,0,0,"human","training_others",5,5,"CornflowerBlue","f","accept",5,376
"768","id0030",1,12,0,0,"human","training_others",4,6,"CornflowerBlue","f","accept",6,377
"769","id0030",1,13,0,0,"AI","training_others",8,2,"Orange","j","reject",0,438
"770","id0030",1,14,0,0,"human","training_others",9,1,"CornflowerBlue","j","reject",0,454
"771","id0030",1,15,0,0,"human","training_others",8,2,"CornflowerBlue","j","reject",0,898
"772","id0030",1,16,0,0,"AI","training_others",4,6,"Orange","f","accept",6,400
"773","id0030",1,17,0,0,"human","training_others",7,3,"CornflowerBlue","j","reject",0,432
"774","id0030",1,18,0,0,"human","training_others",8,2,"CornflowerBlue","j","reject",0,530
"775","id0030",1,19,0,0,"human","training_others",5,5,"CornflowerBlue","f","accept",5,419
"776","id0030",1,20,0,0,"AI","training_others",9,1,"Orange","j","reject",0,435
"777","id0030",1,21,0,0,"AI","training_others",9,1,"Orange","j","reject",0,366
"778","id0030",1,22,0,0,"AI","training_others",5,5,"Orange","f","accept",5,430
"779","id0030",1,23,0,0,"human","training_others",7,3,"CornflowerBlue","j","reject",0,414
"780","id0030",1,24,0,0,"human","training_others",6,4,"CornflowerBlue","j","reject",0,2870
"781","id0031",0,1,1,0,"practice","Practice",2,8,"black","f","accept",8,1708
"782","id0031",0,2,1,0,"practice","Practice",7,3,"black","f","accept",3,621
"783","id0031",1,1,0,0,"AI","training_self",8,2,"CornflowerBlue","f","accept",2,2757
"784","id0031",1,2,0,0,"human","training_self",9,1,"Orange","j","reject",0,1943
"785","id0031",1,3,0,0,"human","training_self",4,6,"Orange","f","accept",6,600
"786","id0031",1,4,0,0,"human","training_self",6,4,"Orange","f","accept",4,536
"787","id0031",1,5,0,0,"human","training_self",8,2,"Orange","f","accept",2,506
"788","id0031",1,6,0,0,"AI","training_self",5,5,"CornflowerBlue","f","accept",5,559
"789","id0031",1,7,0,0,"human","training_self",4,6,"Orange","f","accept",6,393
"790","id0031",1,8,0,0,"AI","training_self",7,3,"CornflowerBlue","j","reject",0,1415
"791","id0031",1,9,0,0,"AI","training_self",9,1,"CornflowerBlue","j","reject",0,369
"792","id0031",1,10,0,0,"AI","training_self",4,6,"CornflowerBlue","f","accept",6,514
"793","id0031",1,11,0,0,"AI","training_self",5,5,"CornflowerBlue","f","accept",5,390
"794","id0031",1,12,0,0,"AI","training_self",9,1,"CornflowerBlue","j","reject",0,624
"795","id0031",1,13,0,0,"AI","training_self",7,3,"CornflowerBlue","f","accept",3,323
"796","id0031",1,14,0,0,"human","training_self",5,5,"Orange","f","accept",5,409
"797","id0031",1,15,0,0,"AI","training_self",4,6,"CornflowerBlue","f","accept",6,406
"798","id0031",1,16,0,0,"human","training_self",8,2,"Orange","f","accept",2,343
"799","id0031",1,17,0,0,"human","training_self",9,1,"Orange","j","reject",0,377
"800","id0031",1,18,0,0,"human","training_self",5,5,"Orange","f","accept",5,404
"801","id0031",1,19,0,0,"AI","training_self",6,4,"CornflowerBlue","f","accept",4,377
"802","id0031",1,20,0,0,"human","training_self",6,4,"Orange","f","accept",4,374
"803","id0031",1,21,0,0,"AI","training_self",6,4,"CornflowerBlue","f","accept",4,403
"804","id0031",1,22,0,0,"human","training_self",7,3,"Orange","f","accept",3,372
"805","id0031",1,23,0,0,"AI","training_self",8,2,"CornflowerBlue","f","accept",2,384
"806","id0031",1,24,0,1,"human","training_self",7,3,"Orange","f","accept",3,377
"807","id0032",0,1,1,0,"practice","Practice",6,4,"black","f","accept",4,775
"808","id0032",0,2,1,0,"practice","Practice",1,9,"black","f","accept",9,366
"809","id0032",1,1,0,0,"AI","training_self",7,3,"CornflowerBlue","f","accept",3,530
"810","id0032",1,2,0,1,"AI","training_self",6,4,"CornflowerBlue","f","accept",4,519
"811","id0032",1,3,0,0,"human","training_self",8,2,"Orange","j","reject",0,759
"812","id0032",1,4,0,0,"human","training_self",9,1,"Orange","j","reject",0,416
"813","id0032",1,5,0,0,"AI","training_self",4,6,"CornflowerBlue","f","accept",6,365
"814","id0032",1,6,0,0,"AI","training_self",8,2,"CornflowerBlue","j","reject",0,617
"815","id0032",1,7,0,0,"human","training_self",5,5,"Orange","f","accept",5,432
"816","id0032",1,8,0,0,"human","training_self",4,6,"Orange","f","accept",6,768
"817","id0032",1,9,0,0,"human","training_self",7,3,"Orange","f","accept",3,1064
"818","id0032",1,10,0,0,"human","training_self",6,4,"Orange","f","accept",4,1087
"819","id0032",1,11,0,0,"human","training_self",6,4,"Orange","f","accept",4,2462
"820","id0032",1,12,0,0,"human","training_self",7,3,"Orange","f","accept",3,461
"821","id0032",1,13,0,0,"AI","training_self",4,6,"CornflowerBlue","f","accept",6,874
"822","id0032",1,14,0,0,"AI","training_self",7,3,"CornflowerBlue","f","accept",3,455
"823","id0032",1,15,0,0,"human","training_self",9,1,"Orange","j","reject",0,2795
"824","id0032",1,16,0,0,"human","training_self",8,2,"Orange","j","reject",0,1092
"825","id0032",1,17,0,0,"AI","training_self",5,5,"CornflowerBlue","f","accept",5,1159
"826","id0032",1,18,0,0,"human","training_self",4,6,"Orange","f","accept",6,1397
"827","id0032",1,19,0,0,"AI","training_self",6,4,"CornflowerBlue","f","accept",4,426
"828","id0032",1,20,0,0,"human","training_self",5,5,"Orange","f","accept",5,573
"829","id0032",1,21,0,0,"AI","training_self",9,1,"CornflowerBlue","j","reject",0,579
"830","id0032",1,22,0,0,"AI","training_self",5,5,"CornflowerBlue","f","accept",5,404
"831","id0032",1,23,0,0,"AI","training_self",9,1,"CornflowerBlue","j","reject",0,744
"832","id0032",1,24,0,0,"AI","training_self",8,2,"CornflowerBlue","j","reject",0,978
"833","id0033",0,1,1,0,"practice","Practice",5,5,"black","f","accept",5,634
"834","id0033",0,2,1,0,"practice","Practice",5,5,"black","f","accept",5,301
"835","id0033",1,1,0,0,"human","control",9,1,"Orange","j","reject",0,362
"836","id0033",1,2,0,0,"human","control",6,4,"Orange","f","accept",4,348
"837","id0033",1,3,0,0,"human","control",6,4,"Orange","f","accept",4,321
"838","id0033",1,4,0,0,"AI","control",5,5,"CornflowerBlue","f","accept",5,281
"839","id0033",1,5,0,0,"AI","control",4,6,"CornflowerBlue","f","accept",6,405
"840","id0033",1,6,0,0,"human","control",9,1,"Orange","j","reject",0,525
"841","id0033",1,7,0,0,"AI","control",7,3,"CornflowerBlue","j","reject",0,316
"842","id0033",1,8,0,0,"human","control",5,5,"Orange","f","accept",5,254
"843","id0033",1,9,0,0,"human","control",7,3,"Orange","j","reject",0,302
"844","id0033",1,10,0,0,"AI","control",6,4,"CornflowerBlue","j","reject",0,290
"845","id0033",1,11,0,0,"human","control",4,6,"Orange","f","accept",6,276
"846","id0033",1,12,0,0,"AI","control",9,1,"CornflowerBlue","j","reject",0,294
"847","id0033",1,13,0,1,"human","control",8,2,"Orange","j","reject",0,216
"848","id0033",1,14,0,0,"human","control",7,3,"Orange","f","accept",3,254
"849","id0033",1,15,0,0,"AI","control",5,5,"CornflowerBlue","f","accept",5,242
"850","id0033",1,16,0,0,"AI","control",7,3,"CornflowerBlue","j","reject",0,262
"851","id0033",1,17,0,0,"AI","control",4,6,"CornflowerBlue","f","accept",6,244
"852","id0033",1,18,0,0,"human","control",8,2,"Orange","j","reject",0,266
"853","id0033",1,19,0,0,"AI","control",9,1,"CornflowerBlue","j","reject",0,92
"854","id0033",1,20,0,0,"human","control",5,5,"Orange","f","accept",5,257
"855","id0033",1,21,0,0,"AI","control",8,2,"CornflowerBlue","j","reject",0,97
"856","id0033",1,22,0,0,"AI","control",8,2,"CornflowerBlue","j","reject",0,318
"857","id0033",1,23,0,0,"human","control",4,6,"Orange","f","accept",6,275
"858","id0033",1,24,0,0,"AI","control",6,4,"CornflowerBlue","j","reject",0,311
"859","id0034",0,1,1,0,"practice","Practice",7,3,"black","j","reject",0,845
"860","id0034",0,2,1,0,"practice","Practice",3,7,"black","f","accept",7,385
"861","id0034",1,1,0,0,"human","control",8,2,"CornflowerBlue","j","reject",0,2249
"862","id0034",1,2,0,0,"human","control",5,5,"CornflowerBlue","f","accept",5,680
"863","id0034",1,3,0,0,"human","control",9,1,"CornflowerBlue","j","reject",0,557
"864","id0034",1,4,0,0,"AI","control",5,5,"Orange","f","accept",5,353
"865","id0034",1,5,0,0,"AI","control",4,6,"Orange","f","accept",6,649
"866","id0034",1,6,0,0,"AI","control",7,3,"Orange","j","reject",0,869
"867","id0034",1,7,0,0,"AI","control",5,5,"Orange","f","accept",5,251
"868","id0034",1,8,0,0,"AI","control",9,1,"Orange","j","reject",0,1508
"869","id0034",1,9,0,0,"human","control",6,4,"CornflowerBlue","f","accept",4,4712
"870","id0034",1,10,0,0,"AI","control",6,4,"Orange","f","accept",4,233
"871","id0034",1,11,0,1,"human","control",6,4,"CornflowerBlue","f","accept",4,356
"872","id0034",1,12,0,0,"AI","control",9,1,"Orange","j","reject",0,344
"873","id0034",1,13,0,0,"AI","control",6,4,"Orange","j","reject",0,53
"874","id0034",1,14,0,0,"AI","control",8,2,"Orange","j","reject",0,393
"875","id0034",1,15,0,0,"AI","control",4,6,"Orange","f","accept",6,386
"876","id0034",1,16,0,0,"human","control",5,5,"CornflowerBlue","f","accept",5,361
"877","id0034",1,17,0,0,"human","control",7,3,"CornflowerBlue","j","reject",0,242
"878","id0034",1,18,0,0,"AI","control",8,2,"Orange","j","reject",0,390
"879","id0034",1,19,0,0,"human","control",4,6,"CornflowerBlue","f","accept",6,663
"880","id0034",1,20,0,0,"human","control",7,3,"CornflowerBlue","j","reject",0,649
"881","id0034",1,21,0,0,"AI","control",7,3,"Orange","j","reject",0,368
"882","id0034",1,22,0,0,"human","control",9,1,"CornflowerBlue","j","reject",0,466
"883","id0034",1,23,0,0,"human","control",4,6,"CornflowerBlue","f","accept",6,277
"884","id0034",1,24,0,0,"human","control",8,2,"CornflowerBlue","j","reject",0,293
"885","id0035",0,1,1,0,"practice","Practice",5,5,"black","f","accept",5,814
"886","id0035",0,2,1,0,"practice","Practice",1,9,"black","f","accept",9,654
"887","id0035",1,1,0,0,"AI","control",7,3,"CornflowerBlue","f","accept",3,61
"888","id0035",1,2,0,0,"human","control",9,1,"Orange","j","reject",0,214
"889","id0035",1,3,0,0,"AI","control",5,5,"CornflowerBlue","f","accept",5,502
"890","id0035",1,4,0,0,"human","control",7,3,"Orange","f","accept",3,502
"891","id0035",1,5,0,0,"human","control",6,4,"Orange","f","accept",4,478
"892","id0035",1,6,0,0,"human","control",4,6,"Orange","f","accept",6,382
"893","id0035",1,7,0,0,"human","control",6,4,"Orange","f","accept",4,446
"894","id0035",1,8,0,0,"AI","control",8,2,"CornflowerBlue","j","reject",0,2127
"895","id0035",1,9,0,0,"AI","control",4,6,"CornflowerBlue","f","accept",6,374
"896","id0035",1,10,0,0,"human","control",8,2,"Orange","j","reject",0,1487
"897","id0035",1,11,0,0,"human","control",5,5,"Orange","f","accept",5,310
"898","id0035",1,12,0,0,"human","control",7,3,"Orange","f","accept",3,447
"899","id0035",1,13,0,0,"human","control",5,5,"Orange","f","accept",5,327
"900","id0035",1,14,0,1,"AI","control",8,2,"CornflowerBlue","j","reject",0,447
"901","id0035",1,15,0,0,"AI","control",9,1,"CornflowerBlue","j","reject",0,567
"902","id0035",1,16,0,0,"AI","control",6,4,"CornflowerBlue","f","accept",4,287
"903","id0035",1,17,0,0,"human","control",8,2,"Orange","j","reject",0,807
"904","id0035",1,18,0,0,"AI","control",7,3,"CornflowerBlue","f","accept",3,320
"905","id0035",1,19,0,0,"AI","control",9,1,"CornflowerBlue","j","reject",0,720
"906","id0035",1,20,0,0,"AI","control",4,6,"CornflowerBlue","f","accept",6,432
"907","id0035",1,21,0,0,"human","control",4,6,"Orange","f","accept",6,440
"908","id0035",1,22,0,0,"AI","control",5,5,"CornflowerBlue","f","accept",5,408
"909","id0035",1,23,0,0,"human","control",9,1,"Orange","j","reject",0,568
"910","id0035",1,24,0,0,"AI","control",6,4,"CornflowerBlue","f","accept",4,512
"911","id0036",0,1,1,0,"practice","Practice",7,3,"black","f","accept",3,10356
"912","id0036",0,2,1,0,"practice","Practice",9,1,"black","j","reject",0,1513
"913","id0036",1,1,0,0,"human","training_self",7,3,"CornflowerBlue","f","accept",3,4123
"914","id0036",1,2,0,0,"AI","training_self",6,4,"Orange","f","accept",4,698
"915","id0036",1,3,0,0,"human","training_self",7,3,"CornflowerBlue","f","accept",3,7929
"916","id0036",1,4,0,0,"human","training_self",4,6,"CornflowerBlue","f","accept",6,1018
"917","id0036",1,5,0,0,"AI","training_self",4,6,"Orange","f","accept",6,405
"918","id0036",1,6,0,0,"AI","training_self",5,5,"Orange","f","accept",5,1048
"919","id0036",1,7,0,0,"AI","training_self",9,1,"Orange","j","reject",0,566
"920","id0036",1,8,0,1,"human","training_self",6,4,"CornflowerBlue","f","accept",4,648
"921","id0036",1,9,0,0,"AI","training_self",4,6,"Orange","f","accept",6,295
"922","id0036",1,10,0,0,"human","training_self",8,2,"CornflowerBlue","j","reject",0,1902
"923","id0036",1,11,0,0,"AI","training_self",8,2,"Orange","j","reject",0,2420
"924","id0036",1,12,0,0,"human","training_self",4,6,"CornflowerBlue","f","accept",6,435
"925","id0036",1,13,0,0,"AI","training_self",8,2,"Orange","j","reject",0,1004
"926","id0036",1,14,0,0,"human","training_self",5,5,"CornflowerBlue","f","accept",5,110
"927","id0036",1,15,0,0,"human","training_self",5,5,"CornflowerBlue","f","accept",5,742
"928","id0036",1,16,0,0,"human","training_self",6,4,"CornflowerBlue","f","accept",4,1211
"929","id0036",1,17,0,0,"AI","training_self",7,3,"Orange","f","accept",3,5269
"930","id0036",1,18,0,0,"human","training_self",9,1,"CornflowerBlue","j","reject",0,1089
"931","id0036",1,19,0,0,"AI","training_self",9,1,"Orange","j","reject",0,1660
"932","id0036",1,20,0,0,"human","training_self",8,2,"CornflowerBlue","j","reject",0,1255
"933","id0036",1,21,0,0,"human","training_self",9,1,"CornflowerBlue","j","reject",0,497
"934","id0036",1,22,0,0,"AI","training_self",7,3,"Orange","f","accept",3,2820
"935","id0036",1,23,0,0,"AI","training_self",6,4,"Orange","f","accept",4,858
"936","id0036",1,24,0,0,"AI","training_self",5,5,"Orange","f","accept",5,300
"937","id0037",0,1,1,0,"practice","Practice",5,5,"black","f","accept",5,690
"938","id0037",0,2,1,0,"practice","Practice",7,3,"black","f","accept",3,2063
"939","id0037",1,1,0,0,"human","training_others",5,5,"Orange","f","accept",5,647
"940","id0037",1,2,0,0,"AI","training_others",8,2,"CornflowerBlue","j","reject",0,1721
"941","id0037",1,3,0,0,"AI","training_others",8,2,"CornflowerBlue","j","reject",0,482
"942","id0037",1,4,0,1,"AI","training_others",9,1,"CornflowerBlue","j","reject",0,326
"943","id0037",1,5,0,0,"human","training_others",8,2,"Orange","j","reject",0,35
"944","id0037",1,6,0,0,"AI","training_others",5,5,"CornflowerBlue","f","accept",5,312
"945","id0037",1,7,0,0,"human","training_others",4,6,"Orange","f","accept",6,528
"946","id0037",1,8,0,0,"human","training_others",6,4,"Orange","f","accept",4,941
"947","id0037",1,9,0,0,"AI","training_others",7,3,"CornflowerBlue","f","accept",3,421
"948","id0037",1,10,0,0,"human","training_others",7,3,"Orange","f","accept",3,322
"949","id0037",1,11,0,0,"human","training_others",6,4,"Orange","f","accept",4,430
"950","id0037",1,12,0,0,"AI","training_others",4,6,"CornflowerBlue","f","accept",6,516
"951","id0037",1,13,0,0,"human","training_others",9,1,"Orange","j","reject",0,456
"952","id0037",1,14,0,0,"AI","training_others",6,4,"CornflowerBlue","f","accept",4,467
"953","id0037",1,15,0,0,"AI","training_others",6,4,"CornflowerBlue","f","accept",4,432
"954","id0037",1,16,0,0,"human","training_others",5,5,"Orange","f","accept",5,450
"955","id0037",1,17,0,0,"AI","training_others",4,6,"CornflowerBlue","f","accept",6,472
"956","id0037",1,18,0,0,"human","training_others",8,2,"Orange","j","reject",0,494
"957","id0037",1,19,0,0,"AI","training_others",9,1,"CornflowerBlue","j","reject",0,470
"958","id0037",1,20,0,0,"human","training_others",7,3,"Orange","f","accept",3,418
"959","id0037",1,21,0,0,"AI","training_others",5,5,"CornflowerBlue","f","accept",5,349
"960","id0037",1,22,0,0,"human","training_others",9,1,"Orange","j","reject",0,418
"961","id0037",1,23,0,0,"human","training_others",4,6,"Orange","f","accept",6,595
"962","id0037",1,24,0,0,"AI","training_others",7,3,"CornflowerBlue","f","accept",3,1744
"963","id0038",0,1,1,0,"practice","Practice",8,2,"black","f","accept",2,21764
"964","id0038",0,2,1,0,"practice","Practice",8,2,"black","f","accept",2,6088
"965","id0038",1,1,0,0,"human","training_others",8,2,"CornflowerBlue","j","reject",0,9301
"966","id0038",1,2,0,0,"AI","training_others",9,1,"Orange","j","reject",0,3796
"967","id0038",1,3,0,0,"AI","training_others",4,6,"Orange","f","accept",6,1977
"968","id0038",1,4,0,0,"human","training_others",6,4,"CornflowerBlue","f","accept",4,1663
"969","id0038",1,5,0,0,"AI","training_others",5,5,"Orange","f","accept",5,583
"970","id0038",1,6,0,0,"AI","training_others",6,4,"Orange","f","accept",4,1302
"971","id0038",1,7,0,0,"AI","training_others",9,1,"Orange","j","reject",0,1393
"972","id0038",1,8,0,0,"human","training_others",8,2,"CornflowerBlue","j","reject",0,1058
"973","id0038",1,9,0,0,"AI","training_others",4,6,"Orange","f","accept",6,979
"974","id0038",1,10,0,0,"human","training_others",9,1,"CornflowerBlue","j","reject",0,391
"975","id0038",1,11,0,0,"AI","training_others",8,2,"Orange","j","reject",0,745
"976","id0038",1,12,0,0,"AI","training_others",7,3,"Orange","j","reject",0,937
"977","id0038",1,13,0,0,"human","training_others",4,6,"CornflowerBlue","f","accept",6,556
"978","id0038",1,14,0,0,"human","training_others",5,5,"CornflowerBlue","f","accept",5,190
"979","id0038",1,15,0,0,"AI","training_others",6,4,"Orange","f","accept",4,187
"980","id0038",1,16,0,0,"AI","training_others",5,5,"Orange","f","accept",5,3364
"981","id0038",1,17,0,0,"human","training_others",7,3,"CornflowerBlue","j","reject",0,1184
"982","id0038",1,18,0,0,"human","training_others",9,1,"CornflowerBlue","j","reject",0,1650
"983","id0038",1,19,0,0,"human","training_others",6,4,"CornflowerBlue","f","accept",4,119
"984","id0038",1,20,0,0,"human","training_others",7,3,"CornflowerBlue","j","reject",0,276
"985","id0038",1,21,0,0,"AI","training_others",7,3,"Orange","j","reject",0,887
"986","id0038",1,22,0,0,"AI","training_others",8,2,"Orange","j","reject",0,145
"987","id0038",1,23,0,1,"human","training_others",5,5,"CornflowerBlue","f","accept",5,1922
"988","id0038",1,24,0,0,"human","training_others",4,6,"CornflowerBlue","f","accept",6,482
"989","id0039",0,1,1,0,"practice","Practice",1,9,"black","f","accept",9,1025
"990","id0039",0,2,1,0,"practice","Practice",4,6,"black","f","accept",6,538
"991","id0039",1,1,0,0,"AI","training_others",5,5,"CornflowerBlue","f","accept",5,194
"992","id0039",1,2,0,0,"human","training_others",9,1,"Orange","j","reject",0,2412
"993","id0039",1,3,0,0,"AI","training_others",4,6,"CornflowerBlue","f","accept",6,349
"994","id0039",1,4,0,0,"AI","training_others",6,4,"CornflowerBlue","f","accept",4,1334
"995","id0039",1,5,0,0,"AI","training_others",7,3,"CornflowerBlue","j","reject",0,379
"996","id0039",1,6,0,0,"human","training_others",8,2,"Orange","j","reject",0,446
"997","id0039",1,7,0,0,"human","training_others",5,5,"Orange","f","accept",5,314
"998","id0039",1,8,0,0,"AI","training_others",8,2,"CornflowerBlue","j","reject",0,355
"999","id0039",1,9,0,0,"human","training_others",4,6,"Orange","f","accept",6,384
"1000","id0039",1,10,0,1,"AI","training_others",7,3,"CornflowerBlue","j","reject",0,341
"1001","id0039",1,11,0,0,"human","training_others",9,1,"Orange","j","reject",0,299
"1002","id0039",1,12,0,0,"human","training_others",7,3,"Orange","j","reject",0,420
"1003","id0039",1,13,0,0,"AI","training_others",5,5,"CornflowerBlue","f","accept",5,608
"1004","id0039",1,14,0,0,"AI","training_others",6,4,"CornflowerBlue","f","accept",4,302
"1005","id0039",1,15,0,0,"AI","training_others",8,2,"CornflowerBlue","j","reject",0,285
"1006","id0039",1,16,0,0,"human","training_others",6,4,"Orange","f","accept",4,284
"1007","id0039",1,17,0,0,"human","training_others",8,2,"Orange","j","reject",0,317
"1008","id0039",1,18,0,0,"human","training_others",7,3,"Orange","j","reject",0,324
"1009","id0039",1,19,0,0,"human","training_others",4,6,"Orange","f","accept",6,219
"1010","id0039",1,20,0,0,"AI","training_others",4,6,"CornflowerBlue","f","accept",6,311
"1011","id0039",1,21,0,0,"AI","training_others",9,1,"CornflowerBlue","j","reject",0,409
"1012","id0039",1,22,0,0,"human","training_others",6,4,"Orange","f","accept",4,1343
"1013","id0039",1,23,0,0,"AI","training_others",9,1,"CornflowerBlue","j","reject",0,230
"1014","id0039",1,24,0,0,"human","training_others",5,5,"Orange","f","accept",5,246
"1015","id0040",0,1,1,0,"practice","Practice",7,3,"black","j","reject",0,12663
"1016","id0040",0,2,1,0,"practice","Practice",6,4,"black","j","reject",0,2290
"1017","id0040",1,1,0,0,"human","training_others",9,1,"Orange","j","reject",0,1020
"1018","id0040",1,2,0,0,"AI","training_others",8,2,"CornflowerBlue","j","reject",0,1431
"1019","id0040",1,3,0,0,"AI","training_others",5,5,"CornflowerBlue","f","accept",5,495
"1020","id0040",1,4,0,0,"AI","training_others",9,1,"CornflowerBlue","j","reject",0,1185
"1021","id0040",1,5,0,0,"human","training_others",7,3,"Orange","j","reject",0,199
"1022","id0040",1,6,0,1,"human","training_others",5,5,"Orange","f","accept",5,737
"1023","id0040",1,7,0,0,"human","training_others",6,4,"Orange","f","accept",4,468
"1024","id0040",1,8,0,0,"AI","training_others",6,4,"CornflowerBlue","f","accept",4,463
"1025","id0040",1,9,0,0,"human","training_others",8,2,"Orange","j","reject",0,468
"1026","id0040",1,10,0,0,"human","training_others",4,6,"Orange","f","accept",6,339
"1027","id0040",1,11,0,0,"AI","training_others",9,1,"CornflowerBlue","j","reject",0,880
"1028","id0040",1,12,0,0,"human","training_others",8,2,"Orange","j","reject",0,430
"1029","id0040",1,13,0,0,"human","training_others",9,1,"Orange","j","reject",0,487
"1030","id0040",1,14,0,0,"human","training_others",4,6,"Orange","f","accept",6,401
"1031","id0040",1,15,0,0,"human","training_others",7,3,"Orange","j","reject",0,465
"1032","id0040",1,16,0,0,"AI","training_others",6,4,"CornflowerBlue","f","accept",4,362
"1033","id0040",1,17,0,0,"human","training_others",6,4,"Orange","f","accept",4,750
"1034","id0040",1,18,0,0,"AI","training_others",5,5,"CornflowerBlue","f","accept",5,520
"1035","id0040",1,19,0,0,"AI","training_others",4,6,"CornflowerBlue","f","accept",6,502
"1036","id0040",1,20,0,0,"AI","training_others",7,3,"CornflowerBlue","f","accept",3,1224
"1037","id0040",1,21,0,0,"AI","training_others",7,3,"CornflowerBlue","j","reject",0,466
"1038","id0040",1,22,0,0,"AI","training_others",4,6,"CornflowerBlue","f","accept",6,531
"1039","id0040",1,23,0,0,"AI","training_others",8,2,"CornflowerBlue","j","reject",0,545
"1040","id0040",1,24,0,0,"human","training_others",5,5,"Orange","f","accept",5,402
"1041","id0041",0,1,1,0,"practice","Practice",10,0,"black","j","reject",0,3808
"1042","id0041",0,2,1,0,"practice","Practice",9,1,"black","j","reject",0,5477
"1043","id0041",1,1,0,0,"human","training_others",4,6,"CornflowerBlue","f","accept",6,2328
"1044","id0041",1,2,0,0,"AI","training_others",7,3,"Orange","f","accept",3,2906
"1045","id0041",1,3,0,0,"human","training_others",8,2,"CornflowerBlue","f","accept",2,5308
"1046","id0041",1,4,0,0,"human","training_others",9,1,"CornflowerBlue","f","accept",1,796
"1047","id0041",1,5,0,0,"human","training_others",6,4,"CornflowerBlue","f","accept",4,1172
"1048","id0041",1,6,0,0,"AI","training_others",6,4,"Orange","f","accept",4,1686
"1049","id0041",1,7,0,0,"human","training_others",4,6,"CornflowerBlue","f","accept",6,1428
"1050","id0041",1,8,0,0,"human","training_others",5,5,"CornflowerBlue","f","accept",5,990
"1051","id0041",1,9,0,0,"AI","training_others",7,3,"Orange","f","accept",3,709
"1052","id0041",1,10,0,0,"AI","training_others",5,5,"Orange","f","accept",5,1037
"1053","id0041",1,11,0,0,"AI","training_others",9,1,"Orange","f","accept",1,1357
"1054","id0041",1,12,0,0,"AI","training_others",8,2,"Orange","f","accept",2,1390
"1055","id0041",1,13,0,0,"AI","training_others",4,6,"Orange","f","accept",6,2207
"1056","id0041",1,14,0,1,"human","training_others",7,3,"CornflowerBlue","f","accept",3,1357
"1057","id0041",1,15,0,0,"human","training_others",7,3,"CornflowerBlue","f","accept",3,125
"1058","id0041",1,16,0,0,"human","training_others",6,4,"CornflowerBlue","f","accept",4,1044
"1059","id0041",1,17,0,0,"AI","training_others",8,2,"Orange","f","accept",2,989
"1060","id0041",1,18,0,0,"AI","training_others",6,4,"Orange","f","accept",4,1365
"1061","id0041",1,19,0,0,"human","training_others",8,2,"CornflowerBlue","f","accept",2,901
"1062","id0041",1,20,0,0,"human","training_others",5,5,"CornflowerBlue","f","accept",5,742
"1063","id0041",1,21,0,0,"AI","training_others",5,5,"Orange","f","accept",5,1365
"1064","id0041",1,22,0,0,"AI","training_others",4,6,"Orange","f","accept",6,996
"1065","id0041",1,23,0,0,"human","training_others",9,1,"CornflowerBlue","j","reject",0,189
"1066","id0041",1,24,0,0,"AI","training_others",9,1,"Orange","j","reject",0,429
"1067","id0042",0,1,1,0,"practice","Practice",3,7,"black","f","accept",7,1007
"1068","id0042",0,2,1,0,"practice","Practice",10,0,"black","f","accept",0,2018
"1069","id0042",1,1,0,0,"AI","control",4,6,"CornflowerBlue","f","accept",6,583
"1070","id0042",1,2,0,0,"AI","control",7,3,"CornflowerBlue","f","accept",3,370
"1071","id0042",1,3,0,0,"human","control",8,2,"Orange","f","accept",2,557
"1072","id0042",1,4,0,0,"AI","control",8,2,"CornflowerBlue","f","accept",2,520
"1073","id0042",1,5,0,0,"human","control",6,4,"Orange","f","accept",4,466
"1074","id0042",1,6,0,0,"human","control",5,5,"Orange","f","accept",5,453
"1075","id0042",1,7,0,0,"AI","control",5,5,"CornflowerBlue","f","accept",5,591
"1076","id0042",1,8,0,0,"human","control",7,3,"Orange","f","accept",3,969
"1077","id0042",1,9,0,0,"AI","control",9,1,"CornflowerBlue","j","reject",0,1813
"1078","id0042",1,10,0,0,"human","control",5,5,"Orange","f","accept",5,379
"1079","id0042",1,11,0,0,"human","control",7,3,"Orange","f","accept",3,397
"1080","id0042",1,12,0,1,"AI","control",6,4,"CornflowerBlue","f","accept",4,357
"1081","id0042",1,13,0,0,"human","control",9,1,"Orange","f","accept",1,457
"1082","id0042",1,14,0,0,"human","control",6,4,"Orange","f","accept",4,491
"1083","id0042",1,15,0,0,"human","control",4,6,"Orange","f","accept",6,441
"1084","id0042",1,16,0,0,"AI","control",4,6,"CornflowerBlue","f","accept",6,488
"1085","id0042",1,17,0,0,"AI","control",8,2,"CornflowerBlue","j","reject",0,2140
"1086","id0042",1,18,0,0,"AI","control",9,1,"CornflowerBlue","j","reject",0,1037
"1087","id0042",1,19,0,0,"human","control",8,2,"Orange","f","accept",2,722
"1088","id0042",1,20,0,0,"human","control",4,6,"Orange","f","accept",6,466
"1089","id0042",1,21,0,0,"AI","control",6,4,"CornflowerBlue","f","accept",4,103
"1090","id0042",1,22,0,0,"human","control",9,1,"Orange","f","accept",1,397
"1091","id0042",1,23,0,0,"AI","control",7,3,"CornflowerBlue","f","accept",3,483
"1092","id0042",1,24,0,0,"AI","control",5,5,"CornflowerBlue","f","accept",5,375
"1093","id0043",0,1,1,0,"practice","Practice",9,1,"black","j","reject",0,15465
"1094","id0043",0,2,1,0,"practice","Practice",9,1,"black","f","accept",1,11818
"1095","id0043",1,1,0,0,"AI","control",6,4,"Orange","f","accept",4,6068
"1096","id0043",1,2,0,1,"human","control",4,6,"CornflowerBlue","f","accept",6,1264
"1097","id0043",1,3,0,0,"human","control",9,1,"CornflowerBlue","j","reject",0,3170
"1098","id0043",1,4,0,0,"AI","control",7,3,"Orange","j","reject",0,1808
"1099","id0043",1,5,0,0,"human","control",5,5,"CornflowerBlue","f","accept",5,1540
"1100","id0043",1,6,0,0,"human","control",4,6,"CornflowerBlue","f","accept",6,139
"1101","id0043",1,7,0,0,"AI","control",6,4,"Orange","f","accept",4,333
"1102","id0043",1,8,0,0,"human","control",6,4,"CornflowerBlue","f","accept",4,1200
"1103","id0043",1,9,0,0,"human","control",8,2,"CornflowerBlue","j","reject",0,1815
"1104","id0043",1,10,0,0,"AI","control",9,1,"Orange","j","reject",0,1709
"1105","id0043",1,11,0,0,"human","control",9,1,"CornflowerBlue","j","reject",0,154
"1106","id0043",1,12,0,0,"AI","control",5,5,"Orange","f","accept",5,1627
"1107","id0043",1,13,0,0,"human","control",8,2,"CornflowerBlue","j","reject",0,1806
"1108","id0043",1,14,0,0,"human","control",5,5,"CornflowerBlue","f","accept",5,621
"1109","id0043",1,15,0,0,"AI","control",5,5,"Orange","f","accept",5,144
"1110","id0043",1,16,0,0,"AI","control",4,6,"Orange","f","accept",6,718
"1111","id0043",1,17,0,0,"AI","control",4,6,"Orange","f","accept",6,1045
"1112","id0043",1,18,0,0,"AI","control",7,3,"Orange","j","reject",0,886
"1113","id0043",1,19,0,0,"AI","control",8,2,"Orange","j","reject",0,868
"1114","id0043",1,20,0,0,"AI","control",9,1,"Orange","j","reject",0,132
"1115","id0043",1,21,0,0,"human","control",7,3,"CornflowerBlue","j","reject",0,946
"1116","id0043",1,22,0,0,"human","control",7,3,"CornflowerBlue","j","reject",0,237
"1117","id0043",1,23,0,0,"human","control",6,4,"CornflowerBlue","f","accept",4,725
"1118","id0043",1,24,0,0,"AI","control",8,2,"Orange","j","reject",0,834
"1119","id0044",0,1,1,0,"practice","Practice",6,4,"black","f","accept",4,1183
"1120","id0044",0,2,1,0,"practice","Practice",3,7,"black","f","accept",7,561
"1121","id0044",1,1,0,0,"human","training_self",7,3,"CornflowerBlue","j","reject",0,1053
"1122","id0044",1,2,0,0,"AI","training_self",4,6,"Orange","f","accept",6,568
"1123","id0044",1,3,0,0,"AI","training_self",9,1,"Orange","j","reject",0,428
"1124","id0044",1,4,0,0,"AI","training_self",5,5,"Orange","f","accept",5,276
"1125","id0044",1,5,0,0,"human","training_self",4,6,"CornflowerBlue","f","accept",6,453
"1126","id0044",1,6,0,0,"human","training_self",9,1,"CornflowerBlue","j","reject",0,299
"1127","id0044",1,7,0,0,"human","training_self",5,5,"CornflowerBlue","f","accept",5,356
"1128","id0044",1,8,0,0,"AI","training_self",5,5,"Orange","f","accept",5,404
"1129","id0044",1,9,0,0,"human","training_self",4,6,"CornflowerBlue","f","accept",6,318
"1130","id0044",1,10,0,0,"AI","training_self",8,2,"Orange","j","reject",0,627
"1131","id0044",1,11,0,0,"human","training_self",8,2,"CornflowerBlue","j","reject",0,549
"1132","id0044",1,12,0,0,"human","training_self",7,3,"CornflowerBlue","j","reject",0,903
"1133","id0044",1,13,0,0,"AI","training_self",9,1,"Orange","j","reject",0,582
"1134","id0044",1,14,0,0,"human","training_self",5,5,"CornflowerBlue","f","accept",5,405
"1135","id0044",1,15,0,1,"AI","training_self",8,2,"Orange","j","reject",0,420
"1136","id0044",1,16,0,0,"human","training_self",6,4,"CornflowerBlue","f","accept",4,436
"1137","id0044",1,17,0,0,"AI","training_self",7,3,"Orange","j","reject",0,520
"1138","id0044",1,18,0,0,"human","training_self",8,2,"CornflowerBlue","j","reject",0,395
"1139","id0044",1,19,0,0,"human","training_self",6,4,"CornflowerBlue","f","accept",4,373
"1140","id0044",1,20,0,0,"AI","training_self",4,6,"Orange","f","accept",6,420
"1141","id0044",1,21,0,0,"human","training_self",9,1,"CornflowerBlue","j","reject",0,412
"1142","id0044",1,22,0,0,"AI","training_self",6,4,"Orange","f","accept",4,517
"1143","id0044",1,23,0,0,"AI","training_self",7,3,"Orange","j","reject",0,405
"1144","id0044",1,24,0,0,"AI","training_self",6,4,"Orange","f","accept",4,354
"1145","id0045",0,1,1,0,"practice","Practice",4,6,"black","f","accept",6,1028
"1146","id0045",0,2,1,0,"practice","Practice",9,1,"black","j","reject",0,544
"1147","id0045",1,1,0,0,"human","training_self",4,6,"CornflowerBlue","f","accept",6,852
"1148","id0045",1,2,0,0,"human","training_self",9,1,"CornflowerBlue","j","reject",0,548
"1149","id0045",1,3,0,0,"human","training_self",5,5,"CornflowerBlue","f","accept",5,385
"1150","id0045",1,4,0,0,"AI","training_self",4,6,"Orange","f","accept",6,4
"1151","id0045",1,5,0,0,"AI","training_self",8,2,"Orange","j","reject",0,642
"1152","id0045",1,6,0,0,"human","training_self",6,4,"CornflowerBlue","j","reject",0,316
"1153","id0045",1,7,0,0,"AI","training_self",7,3,"Orange","j","reject",0,322
"1154","id0045",1,8,0,0,"AI","training_self",5,5,"Orange","f","accept",5,388
"1155","id0045",1,9,0,0,"human","training_self",4,6,"CornflowerBlue","f","accept",6,392
"1156","id0045",1,10,0,0,"human","training_self",7,3,"CornflowerBlue","j","reject",0,423
"1157","id0045",1,11,0,1,"human","training_self",5,5,"CornflowerBlue","f","accept",5,380
"1158","id0045",1,12,0,0,"human","training_self",7,3,"CornflowerBlue","j","reject",0,360
"1159","id0045",1,13,0,0,"human","training_self",8,2,"CornflowerBlue","j","reject",0,411
"1160","id0045",1,14,0,0,"AI","training_self",4,6,"Orange","f","accept",6,457
"1161","id0045",1,15,0,0,"AI","training_self",8,2,"Orange","j","reject",0,733
"1162","id0045",1,16,0,0,"AI","training_self",9,1,"Orange","j","reject",0,450
"1163","id0045",1,17,0,0,"AI","training_self",7,3,"Orange","j","reject",0,548
"1164","id0045",1,18,0,0,"human","training_self",6,4,"CornflowerBlue","j","reject",0,539
"1165","id0045",1,19,0,0,"AI","training_self",6,4,"Orange","j","reject",0,665
"1166","id0045",1,20,0,0,"human","training_self",8,2,"CornflowerBlue","j","reject",0,503
"1167","id0045",1,21,0,0,"AI","training_self",9,1,"Orange","j","reject",0,454
"1168","id0045",1,22,0,0,"human","training_self",9,1,"CornflowerBlue","j","reject",0,435
"1169","id0045",1,23,0,0,"AI","training_self",5,5,"Orange","f","accept",5,395
"1170","id0045",1,24,0,0,"AI","training_self",6,4,"Orange","j","reject",0,513
"1171","id0046",0,1,1,0,"practice","Practice",7,3,"black","j","reject",0,1261
"1172","id0046",0,2,1,0,"practice","Practice",10,0,"black","j","reject",0,444
"1173","id0046",1,1,0,0,"AI","training_self",8,2,"Orange","j","reject",0,1160
"1174","id0046",1,2,0,0,"human","training_self",7,3,"CornflowerBlue","j","reject",0,426
"1175","id0046",1,3,0,0,"human","training_self",9,1,"CornflowerBlue","j","reject",0,335
"1176","id0046",1,4,0,0,"human","training_self",9,1,"CornflowerBlue","j","reject",0,354
"1177","id0046",1,5,0,0,"human","training_self",5,5,"CornflowerBlue","f","accept",5,395
"1178","id0046",1,6,0,0,"AI","training_self",7,3,"Orange","j","reject",0,365
"1179","id0046",1,7,0,0,"human","training_self",5,5,"CornflowerBlue","f","accept",5,313
"1180","id0046",1,8,0,0,"AI","training_self",8,2,"Orange","j","reject",0,343
"1181","id0046",1,9,0,0,"AI","training_self",4,6,"Orange","f","accept",6,420
"1182","id0046",1,10,0,0,"human","training_self",4,6,"CornflowerBlue","f","accept",6,535
"1183","id0046",1,11,0,0,"human","training_self",8,2,"CornflowerBlue","j","reject",0,352
"1184","id0046",1,12,0,0,"human","training_self",8,2,"CornflowerBlue","j","reject",0,352
"1185","id0046",1,13,0,0,"human","training_self",4,6,"CornflowerBlue","f","accept",6,352
"1186","id0046",1,14,0,0,"AI","training_self",6,4,"Orange","f","accept",4,2423
"1187","id0046",1,15,0,0,"AI","training_self",4,6,"Orange","f","accept",6,480
"1188","id0046",1,16,0,1,"AI","training_self",7,3,"Orange","j","reject",0,348
"1189","id0046",1,17,0,0,"AI","training_self",5,5,"Orange","f","accept",5,329
"1190","id0046",1,18,0,0,"human","training_self",6,4,"CornflowerBlue","j","reject",0,399
"1191","id0046",1,19,0,0,"AI","training_self",9,1,"Orange","j","reject",0,417
"1192","id0046",1,20,0,0,"human","training_self",7,3,"CornflowerBlue","j","reject",0,357
"1193","id0046",1,21,0,0,"human","training_self",6,4,"CornflowerBlue","j","reject",0,361
"1194","id0046",1,22,0,0,"AI","training_self",6,4,"Orange","j","reject",0,591
"1195","id0046",1,23,0,0,"AI","training_self",5,5,"Orange","f","accept",5,315
"1196","id0046",1,24,0,0,"AI","training_self",9,1,"Orange","j","reject",0,406
"1197","id0047",0,1,1,0,"practice","Practice",5,5,"black","j","reject",0,9492
"1198","id0047",0,2,1,0,"practice","Practice",1,9,"black","f","accept",9,52943
"1199","id0047",1,1,0,0,"human","training_others",9,1,"CornflowerBlue","j","reject",0,4773
"1200","id0047",1,2,0,0,"AI","training_others",5,5,"Orange","f","accept",5,25943
"1201","id0047",1,3,0,0,"human","training_others",8,2,"CornflowerBlue","j","reject",0,544
"1202","id0047",1,4,0,0,"AI","training_others",5,5,"Orange","f","accept",5,719
"1203","id0047",1,5,0,0,"human","training_others",9,1,"CornflowerBlue","j","reject",0,807
"1204","id0047",1,6,0,0,"human","training_others",5,5,"CornflowerBlue","f","accept",5,1879
"1205","id0047",1,7,0,0,"AI","training_others",6,4,"Orange","f","accept",4,8034
"1206","id0047",1,8,0,0,"human","training_others",4,6,"CornflowerBlue","f","accept",6,1943
"1207","id0047",1,9,0,0,"AI","training_others",6,4,"Orange","f","accept",4,1184
"1208","id0047",1,10,0,0,"AI","training_others",9,1,"Orange","f","accept",1,4158
"1209","id0047",1,11,0,0,"human","training_others",4,6,"CornflowerBlue","f","accept",6,1673
"1210","id0047",1,12,0,0,"AI","training_others",8,2,"Orange","f","accept",2,592
"1211","id0047",1,13,0,0,"AI","training_others",7,3,"Orange","f","accept",3,408
"1212","id0047",1,14,0,0,"AI","training_others",9,1,"Orange","f","accept",1,847
"1213","id0047",1,15,0,0,"human","training_others",7,3,"CornflowerBlue","j","reject",0,1016
"1214","id0047",1,16,0,0,"human","training_others",6,4,"CornflowerBlue","f","accept",4,2974
"1215","id0047",1,17,0,0,"AI","training_others",4,6,"Orange","f","accept",6,887
"1216","id0047",1,18,0,0,"human","training_others",6,4,"CornflowerBlue","f","accept",4,1415
"1217","id0047",1,19,0,0,"human","training_others",5,5,"CornflowerBlue","f","accept",5,640
"1218","id0047",1,20,0,0,"human","training_others",8,2,"CornflowerBlue","j","reject",0,735
"1219","id0047",1,21,0,1,"AI","training_others",4,6,"Orange","f","accept",6,4009
"1220","id0047",1,22,0,0,"AI","training_others",7,3,"Orange","f","accept",3,591
"1221","id0047",1,23,0,0,"human","training_others",7,3,"CornflowerBlue","j","reject",0,105
"1222","id0047",1,24,0,0,"AI","training_others",8,2,"Orange","j","reject",0,2415
"1223","id0048",0,1,1,0,"practice","Practice",5,5,"black","f","accept",5,1064
"1224","id0048",0,2,1,0,"practice","Practice",3,7,"black","j","reject",0,1761
"1225","id0048",1,1,0,1,"human","training_self",8,2,"Orange","j","reject",0,34
"1226","id0048",1,2,0,0,"AI","training_self",4,6,"CornflowerBlue","f","accept",6,843
"1227","id0048",1,3,0,0,"human","training_self",4,6,"Orange","f","accept",6,620
