"","id","block","trial_number","practice_trial","random_trial","opponent","training_condition","proposer_offer","receiver_offer","color","response_key","response","outcome","reaction_time"
"1","id0001",0,1,1,0,"practice","Practice",7,3,"black","j","reject",0,332
"2","id0001",0,2,1,0,"practice","Practice",8,2,"black","j","reject",0,299
"3","id0001",1,1,0,0,"human","training_self",8,2,"DarkOrchid","j","reject",0,426
"4","id0001",1,2,0,0,"human","training_self",5,5,"DarkOrchid","f","accept",5,310
"5","id0001",1,3,0,0,"AI","training_self",5,5,"GoldenRod","f","accept",5,258
"6","id0001",1,4,0,0,"human","training_self",9,1,"DarkOrchid","j","reject",0,413
"7","id0001",1,5,0,0,"AI","training_self",8,2,"GoldenRod","j","reject",0,252
"8","id0001",1,6,0,0,"human","training_self",4,6,"DarkOrchid","f","accept",6,318
"9","id0001",1,7,0,1,"human","training_self",7,3,"DarkOrchid","f","accept",3,3528
"10","id0001",1,8,0,0,"human","training_self",5,5,"DarkOrchid","f","accept",5,271
"11","id0001",1,9,0,0,"human","training_self",6,4,"DarkOrchid","f","accept",4,188
"12","id0001",1,10,0,0,"AI","training_self",7,3,"GoldenRod","f","accept",3,317
"13","id0001",1,11,0,0,"human","training_self",6,4,"DarkOrchid","f","accept",4,251
"14","id0001",1,12,0,0,"AI","training_self",4,6,"GoldenRod","f","accept",6,284
"15","id0001",1,13,0,0,"AI","training_self",9,1,"GoldenRod","j","reject",0,69
"16","id0001",1,14,0,0,"human","training_self",8,2,"DarkOrchid","j","reject",0,252
"17","id0001",1,15,0,0,"human","training_self",4,6,"DarkOrchid","f","accept",6,210
"18","id0001",1,16,0,0,"human","training_self",9,1,"DarkOrchid","j","reject",0,184
"19","id0001",1,17,0,0,"human","training_self",7,3,"DarkOrchid","f","accept",3,250
"20","id0001",1,18,0,0,"AI","training_self",4,6,"GoldenRod","f","accept",6,291
"21","id0001",1,19,0,0,"AI","training_self",5,5,"GoldenRod","f","accept",5,322
"22","id0001",1,20,0,0,"AI","training_self",6,4,"GoldenRod","f","accept",4,3981
"23","id0001",1,21,0,0,"AI","training_self",4,6,"GoldenRod","f","accept",6,267
"24","id0001",1,22,0,0,"AI","training_self",6,4,"GoldenRod","f","accept",4,253
"25","id0001",1,23,0,0,"AI","training_self",7,3,"GoldenRod","f","accept",3,263
"26","id0001",1,24,0,0,"AI","training_self",5,5,"GoldenRod","f","accept",5,296
"27","id0002",0,1,1,0,"practice","Practice",3,7,"black","f","accept",7,1870
"28","id0002",0,2,1,0,"practice","Practice",8,2,"black","f","accept",2,592
"29","id0002",1,1,0,0,"human","training_self",5,5,"GoldenRod","f","accept",5,693
"30","id0002",1,2,0,0,"AI","training_self",9,1,"DarkOrchid","f","accept",1,942
"31","id0002",1,3,0,0,"human","training_self",4,6,"GoldenRod","f","accept",6,820
"32","id0002",1,4,0,0,"human","training_self",8,2,"GoldenRod","f","accept",2,502
"33","id0002",1,5,0,0,"human","training_self",8,2,"GoldenRod","f","accept",2,55
"34","id0002",1,6,0,0,"AI","training_self",8,2,"DarkOrchid","f","accept",2,288
"35","id0002",1,7,0,0,"human","training_self",6,4,"GoldenRod","f","accept",4,352
"36","id0002",1,8,0,0,"AI","training_self",7,3,"DarkOrchid","f","accept",3,337
"37","id0002",1,9,0,0,"AI","training_self",4,6,"DarkOrchid","f","accept",6,274
"38","id0002",1,10,0,0,"AI","training_self",5,5,"DarkOrchid","f","accept",5,261
"39","id0002",1,11,0,0,"AI","training_self",6,4,"DarkOrchid","f","accept",4,274
"40","id0002",1,12,0,0,"human","training_self",9,1,"GoldenRod","j","reject",0,2801
"41","id0002",1,13,0,0,"human","training_self",6,4,"GoldenRod","f","accept",4,345
"42","id0002",1,14,0,0,"human","training_self",9,1,"GoldenRod","j","reject",0,356
"43","id0002",1,15,0,0,"AI","training_self",6,4,"DarkOrchid","f","accept",4,327
"44","id0002",1,16,0,0,"human","training_self",5,5,"GoldenRod","f","accept",5,364
"45","id0002",1,17,0,0,"human","training_self",7,3,"GoldenRod","f","accept",3,349
"46","id0002",1,18,0,0,"human","training_self",7,3,"GoldenRod","f","accept",3,332
"47","id0002",1,19,0,0,"human","training_self",4,6,"GoldenRod","f","accept",6,457
"48","id0002",1,20,0,0,"AI","training_self",4,6,"DarkOrchid","f","accept",6,268
"49","id0002",1,21,0,1,"AI","training_self",5,5,"DarkOrchid","f","accept",5,349
"50","id0002",1,22,0,0,"AI","training_self",5,5,"DarkOrchid","f","accept",5,350
"51","id0002",1,23,0,0,"AI","training_self",6,4,"DarkOrchid","f","accept",4,408
"52","id0002",1,24,0,0,"AI","training_self",6,4,"DarkOrchid","f","accept",4,533
"53","id0004",0,1,1,0,"practice","Practice",9,1,"black","j","reject",0,1339
"54","id0004",0,2,1,0,"practice","Practice",3,7,"black","f","accept",7,773
"55","id0004",1,1,0,0,"AI","training_others",6,4,"GoldenRod","j","reject",0,955
"56","id0004",1,2,0,0,"human","training_others",5,5,"DarkOrchid","f","accept",5,463
"57","id0004",1,3,0,0,"human","training_others",6,4,"DarkOrchid","j","reject",0,1098
"58","id0004",1,4,0,0,"AI","training_others",8,2,"GoldenRod","j","reject",0,445
"59","id0004",1,5,0,0,"AI","training_others",7,3,"GoldenRod","j","reject",0,403
"60","id0004",1,6,0,0,"human","training_others",9,1,"DarkOrchid","j","reject",0,844
"61","id0004",1,7,0,0,"AI","training_others",5,5,"GoldenRod","f","accept",5,1202
"62","id0004",1,8,0,0,"human","training_others",4,6,"DarkOrchid","j","reject",0,676
"63","id0004",1,9,0,0,"human","training_others",8,2,"DarkOrchid","j","reject",0,1080
"64","id0004",1,10,0,0,"AI","training_others",7,3,"GoldenRod","j","reject",0,706
"65","id0004",1,11,0,0,"human","training_others",7,3,"DarkOrchid","j","reject",0,659
"66","id0004",1,12,0,0,"human","training_others",8,2,"DarkOrchid","j","reject",0,683
"67","id0004",1,13,0,0,"human","training_others",4,6,"DarkOrchid","f","accept",6,737
"68","id0004",1,14,0,0,"AI","training_others",4,6,"GoldenRod","f","accept",6,1244
"69","id0004",1,15,0,1,"AI","training_others",7,3,"GoldenRod","j","reject",0,405
"70","id0004",1,16,0,0,"human","training_others",6,4,"DarkOrchid","j","reject",0,887
"71","id0004",1,17,0,0,"AI","training_others",9,1,"GoldenRod","j","reject",0,574
"72","id0004",1,18,0,0,"AI","training_others",5,5,"GoldenRod","f","accept",5,524
"73","id0004",1,19,0,0,"AI","training_others",6,4,"GoldenRod","j","reject",0,719
"74","id0004",1,20,0,0,"human","training_others",7,3,"DarkOrchid","j","reject",0,542
"75","id0004",1,21,0,0,"AI","training_others",5,5,"GoldenRod","f","accept",5,534
"76","id0004",1,22,0,0,"human","training_others",9,1,"DarkOrchid","j","reject",0,506
"77","id0004",1,23,0,0,"human","training_others",5,5,"DarkOrchid","f","accept",5,774
"78","id0004",1,24,0,0,"AI","training_others",4,6,"GoldenRod","f","accept",6,698
"79","id0005",0,1,1,0,"practice","Practice",7,3,"black","j","reject",0,823
"80","id0005",0,2,1,0,"practice","Practice",6,4,"black","f","accept",4,1255
"81","id0005",1,1,0,0,"AI","control",7,3,"DarkOrchid","f","accept",3,2
"82","id0005",1,2,0,0,"human","control",5,5,"GoldenRod","f","accept",5,370
"83","id0005",1,3,0,0,"human","control",8,2,"GoldenRod","f","accept",2,797
"84","id0005",1,4,0,0,"AI","control",4,6,"DarkOrchid","f","accept",6,613
"85","id0005",1,5,0,0,"AI","control",7,3,"DarkOrchid","f","accept",3,321
"86","id0005",1,6,0,1,"AI","control",9,1,"DarkOrchid","f","accept",1,355
"87","id0005",1,7,0,0,"human","control",6,4,"GoldenRod","f","accept",4,452
"88","id0005",1,8,0,0,"human","control",5,5,"GoldenRod","f","accept",5,370
"89","id0005",1,9,0,0,"AI","control",8,2,"DarkOrchid","f","accept",2,346
"90","id0005",1,10,0,0,"human","control",6,4,"GoldenRod","f","accept",4,406
"91","id0005",1,11,0,0,"AI","control",5,5,"DarkOrchid","f","accept",5,1692
"92","id0005",1,12,0,0,"human","control",8,2,"GoldenRod","f","accept",2,425
"93","id0005",1,13,0,0,"AI","control",5,5,"DarkOrchid","f","accept",5,288
"94","id0005",1,14,0,0,"human","control",4,6,"GoldenRod","f","accept",6,333
"95","id0005",1,15,0,0,"human","control",7,3,"GoldenRod","f","accept",3,316
"96","id0005",1,16,0,0,"AI","control",6,4,"DarkOrchid","f","accept",4,286
"97","id0005",1,17,0,0,"AI","control",4,6,"DarkOrchid","f","accept",6,387
"98","id0005",1,18,0,0,"human","control",7,3,"GoldenRod","f","accept",3,457
"99","id0005",1,19,0,0,"human","control",4,6,"GoldenRod","f","accept",6,383
"100","id0005",1,20,0,0,"human","control",9,1,"GoldenRod","f","accept",1,247
"101","id0005",1,21,0,0,"AI","control",6,4,"DarkOrchid","f","accept",4,509
"102","id0005",1,22,0,0,"AI","control",4,6,"DarkOrchid","f","accept",6,255
"103","id0005",1,23,0,0,"human","control",9,1,"GoldenRod","f","accept",1,335
"104","id0005",1,24,0,0,"AI","control",4,6,"DarkOrchid","f","accept",6,436
"105","id0006",0,1,1,0,"practice","Practice",3,7,"black","f","accept",7,597
"106","id0006",0,2,1,0,"practice","Practice",10,0,"black","j","reject",0,2110
"107","id0006",1,1,0,0,"AI","control",4,6,"GoldenRod","f","accept",6,775
"108","id0006",1,2,0,0,"AI","control",9,1,"GoldenRod","f","accept",1,752
"109","id0006",1,3,0,0,"human","control",7,3,"DarkOrchid","f","accept",3,376
"110","id0006",1,4,0,0,"AI","control",5,5,"GoldenRod","f","accept",5,510
"111","id0006",1,5,0,0,"human","control",5,5,"DarkOrchid","f","accept",5,293
"112","id0006",1,6,0,0,"AI","control",6,4,"GoldenRod","f","accept",4,568
"113","id0006",1,7,0,0,"human","control",7,3,"DarkOrchid","f","accept",3,446
"114","id0006",1,8,0,0,"AI","control",5,5,"GoldenRod","f","accept",5,298
"115","id0006",1,9,0,0,"human","control",4,6,"DarkOrchid","f","accept",6,462
"116","id0006",1,10,0,0,"AI","control",5,5,"GoldenRod","f","accept",5,410
"117","id0006",1,11,0,0,"AI","control",7,3,"GoldenRod","f","accept",3,3430
"118","id0006",1,12,0,0,"human","control",6,4,"DarkOrchid","f","accept",4,725
"119","id0006",1,13,0,0,"AI","control",8,2,"GoldenRod","f","accept",2,299
"120","id0006",1,14,0,0,"AI","control",7,3,"GoldenRod","f","accept",3,548
"121","id0006",1,15,0,0,"human","control",8,2,"DarkOrchid","j","reject",0,231
"122","id0006",1,16,0,0,"human","control",9,1,"DarkOrchid","j","reject",0,256
"123","id0006",1,17,0,0,"human","control",5,5,"DarkOrchid","f","accept",5,363
"124","id0006",1,18,0,0,"AI","control",5,5,"GoldenRod","f","accept",5,475
"125","id0006",1,19,0,0,"human","control",8,2,"DarkOrchid","j","reject",0,321
"126","id0006",1,20,0,1,"AI","control",5,5,"GoldenRod","f","accept",5,104
"127","id0006",1,21,0,0,"human","control",6,4,"DarkOrchid","f","accept",4,1135
"128","id0006",1,22,0,0,"human","control",4,6,"DarkOrchid","f","accept",6,795
"129","id0006",1,23,0,0,"AI","control",5,5,"GoldenRod","f","accept",5,3166
"130","id0006",1,24,0,0,"human","control",9,1,"DarkOrchid","j","reject",0,194
"131","id0007",0,1,1,0,"practice","Practice",6,4,"black","f","accept",4,1408
"132","id0007",0,2,1,0,"practice","Practice",3,7,"black","f","accept",7,800
"133","id0007",1,1,0,0,"human","training_self",6,4,"GoldenRod","f","accept",4,1173
"134","id0007",1,2,0,0,"human","training_self",6,4,"GoldenRod","f","accept",4,3123
"135","id0007",1,3,0,0,"human","training_self",7,3,"GoldenRod","f","accept",3,1067
"136","id0007",1,4,0,0,"human","training_self",5,5,"GoldenRod","f","accept",5,138
"137","id0007",1,5,0,0,"AI","training_self",9,1,"DarkOrchid","j","reject",0,3042
"138","id0007",1,6,0,0,"AI","training_self",8,2,"DarkOrchid","f","accept",2,4001
"139","id0007",1,7,0,0,"human","training_self",7,3,"GoldenRod","f","accept",3,686
"140","id0007",1,8,0,0,"human","training_self",5,5,"GoldenRod","f","accept",5,495
"141","id0007",1,9,0,0,"human","training_self",4,6,"GoldenRod","f","accept",6,960
"142","id0007",1,10,0,0,"AI","training_self",7,3,"DarkOrchid","f","accept",3,608
"143","id0007",1,11,0,0,"AI","training_self",4,6,"DarkOrchid","f","accept",6,611
"144","id0007",1,12,0,0,"AI","training_self",6,4,"DarkOrchid","f","accept",4,556
"145","id0007",1,13,0,0,"human","training_self",8,2,"GoldenRod","f","accept",2,2779
"146","id0007",1,14,0,0,"human","training_self",4,6,"GoldenRod","f","accept",6,523
"147","id0007",1,15,0,0,"AI","training_self",4,6,"DarkOrchid","f","accept",6,1032
"148","id0007",1,16,0,0,"AI","training_self",8,2,"DarkOrchid","f","accept",2,1190
"149","id0007",1,17,0,0,"AI","training_self",6,4,"DarkOrchid","f","accept",4,1494
"150","id0007",1,18,0,0,"AI","training_self",5,5,"DarkOrchid","f","accept",5,859
"151","id0007",1,19,0,0,"human","training_self",9,1,"GoldenRod","j","reject",0,6645
"152","id0007",1,20,0,0,"human","training_self",9,1,"GoldenRod","j","reject",0,1034
"153","id0007",1,21,0,0,"human","training_self",8,2,"GoldenRod","f","accept",2,15910
"154","id0007",1,22,0,0,"AI","training_self",4,6,"DarkOrchid","f","accept",6,435
"155","id0007",1,23,0,0,"AI","training_self",5,5,"DarkOrchid","f","accept",5,610
"156","id0007",1,24,0,1,"AI","training_self",5,5,"DarkOrchid","f","accept",5,483
"157","id0008",0,1,1,0,"practice","Practice",10,0,"black","j","reject",0,780
"158","id0008",0,2,1,0,"practice","Practice",10,0,"black","j","reject",0,319
"159","id0008",1,1,0,0,"AI","training_others",4,6,"GoldenRod","f","accept",6,156
"160","id0008",1,2,0,0,"AI","training_others",6,4,"GoldenRod","f","accept",4,4924
"161","id0008",1,3,0,0,"AI","training_others",5,5,"GoldenRod","f","accept",5,468
"162","id0008",1,4,0,0,"AI","training_others",6,4,"GoldenRod","f","accept",4,551
"163","id0008",1,5,0,0,"AI","training_others",8,2,"GoldenRod","j","reject",0,821
"164","id0008",1,6,0,0,"human","training_others",6,4,"DarkOrchid","f","accept",4,504
"165","id0008",1,7,0,0,"human","training_others",4,6,"DarkOrchid","f","accept",6,62
"166","id0008",1,8,0,0,"human","training_others",5,5,"DarkOrchid","f","accept",5,336
"167","id0008",1,9,0,0,"AI","training_others",9,1,"GoldenRod","j","reject",0,363
"168","id0008",1,10,0,0,"AI","training_others",8,2,"GoldenRod","j","reject",0,346
"169","id0008",1,11,0,0,"human","training_others",8,2,"DarkOrchid","j","reject",0,304
"170","id0008",1,12,0,1,"human","training_others",5,5,"DarkOrchid","f","accept",5,314
"171","id0008",1,13,0,0,"AI","training_others",6,4,"GoldenRod","f","accept",4,385
"172","id0008",1,14,0,0,"AI","training_others",5,5,"GoldenRod","f","accept",5,346
"173","id0008",1,15,0,0,"AI","training_others",7,3,"GoldenRod","j","reject",0,77
"174","id0008",1,16,0,0,"human","training_others",9,1,"DarkOrchid","j","reject",0,79
"175","id0008",1,17,0,0,"human","training_others",7,3,"DarkOrchid","j","reject",0,428
"176","id0008",1,18,0,0,"AI","training_others",7,3,"GoldenRod","j","reject",0,361
"177","id0008",1,19,0,0,"AI","training_others",5,5,"GoldenRod","f","accept",5,313
"178","id0008",1,20,0,0,"human","training_others",6,4,"DarkOrchid","f","accept",4,262
"179","id0008",1,21,0,0,"human","training_others",9,1,"DarkOrchid","j","reject",0,318
"180","id0008",1,22,0,0,"human","training_others",4,6,"DarkOrchid","f","accept",6,300
"181","id0008",1,23,0,0,"human","training_others",8,2,"DarkOrchid","j","reject",0,329
"182","id0008",1,24,0,0,"human","training_others",7,3,"DarkOrchid","j","reject",0,287
"183","id0009",0,1,1,0,"practice","Practice",6,4,"black","f","accept",4,1558
"184","id0009",0,2,1,0,"practice","Practice",4,6,"black","f","accept",6,709
"185","id0009",1,1,0,0,"human","training_others",7,3,"GoldenRod","f","accept",3,1933
"186","id0009",1,2,0,0,"AI","training_others",8,2,"DarkOrchid","f","accept",2,1313
"187","id0009",1,3,0,0,"human","training_others",6,4,"GoldenRod","f","accept",4,2032
"188","id0009",1,4,0,0,"human","training_others",8,2,"GoldenRod","j","reject",0,3117
"189","id0009",1,5,0,0,"human","training_others",7,3,"GoldenRod","f","accept",3,559
"190","id0009",1,6,0,0,"AI","training_others",9,1,"DarkOrchid","j","reject",0,653
"191","id0009",1,7,0,0,"AI","training_others",7,3,"DarkOrchid","f","accept",3,1413
"192","id0009",1,8,0,0,"AI","training_others",8,2,"DarkOrchid","f","accept",2,2789
"193","id0009",1,9,0,0,"human","training_others",9,1,"GoldenRod","j","reject",0,1625
"194","id0009",1,10,0,0,"human","training_others",8,2,"GoldenRod","j","reject",0,1501
"195","id0009",1,11,0,0,"human","training_others",4,6,"GoldenRod","f","accept",6,1351
"196","id0009",1,12,0,1,"AI","training_others",5,5,"DarkOrchid","f","accept",5,1627
"197","id0009",1,13,0,0,"AI","training_others",4,6,"DarkOrchid","f","accept",6,1814
"198","id0009",1,14,0,0,"human","training_others",5,5,"GoldenRod","f","accept",5,1330
"199","id0009",1,15,0,0,"human","training_others",6,4,"GoldenRod","f","accept",4,1406
"200","id0009",1,16,0,0,"human","training_others",5,5,"GoldenRod","f","accept",5,1334
"201","id0009",1,17,0,0,"AI","training_others",4,6,"DarkOrchid","f","accept",6,2108
"202","id0009",1,18,0,0,"AI","training_others",4,6,"DarkOrchid","f","accept",6,2238
"203","id0009",1,19,0,0,"AI","training_others",6,4,"DarkOrchid","f","accept",4,1361
"204","id0009",1,20,0,0,"AI","training_others",4,6,"DarkOrchid","f","accept",6,1577
"205","id0009",1,21,0,0,"human","training_others",9,1,"GoldenRod","j","reject",0,1240
"206","id0009",1,22,0,0,"AI","training_others",6,4,"DarkOrchid","f","accept",4,659
"207","id0009",1,23,0,0,"human","training_others",4,6,"GoldenRod","f","accept",6,1319
"208","id0009",1,24,0,0,"AI","training_others",7,3,"DarkOrchid","f","accept",3,1246
"209","id0011",0,1,1,0,"practice","Practice",1,9,"black","j","reject",0,4182
"210","id0011",0,2,1,0,"practice","Practice",10,0,"black","f","accept",0,1072
"211","id0011",1,1,0,0,"human","training_self",7,3,"GoldenRod","f","accept",3,2717
"212","id0011",1,2,0,0,"AI","training_self",9,1,"DarkOrchid","f","accept",1,151
"213","id0011",1,3,0,0,"human","training_self",5,5,"GoldenRod","f","accept",5,1338
"214","id0011",1,4,0,0,"AI","training_self",4,6,"DarkOrchid","f","accept",6,1948
"215","id0011",1,5,0,0,"human","training_self",9,1,"GoldenRod","f","accept",1,439
"216","id0011",1,6,0,0,"AI","training_self",6,4,"DarkOrchid","f","accept",4,1209
"217","id0011",1,7,0,0,"AI","training_self",6,4,"DarkOrchid","f","accept",4,1260
"218","id0011",1,8,0,0,"AI","training_self",8,2,"DarkOrchid","f","accept",2,933
"219","id0011",1,9,0,0,"human","training_self",8,2,"GoldenRod","f","accept",2,430
"220","id0011",1,10,0,0,"human","training_self",8,2,"GoldenRod","f","accept",2,178
"221","id0011",1,11,0,1,"human","training_self",4,6,"GoldenRod","f","accept",6,2065
"222","id0011",1,12,0,0,"AI","training_self",6,4,"DarkOrchid","f","accept",4,1007
"223","id0011",1,13,0,0,"AI","training_self",7,3,"DarkOrchid","f","accept",3,1079
"224","id0011",1,14,0,0,"AI","training_self",5,5,"DarkOrchid","f","accept",5,487
"225","id0011",1,15,0,0,"AI","training_self",5,5,"DarkOrchid","f","accept",5,374
"226","id0011",1,16,0,0,"AI","training_self",5,5,"DarkOrchid","f","accept",5,446
"227","id0011",1,17,0,0,"human","training_self",7,3,"GoldenRod","f","accept",3,1069
"228","id0011",1,18,0,0,"AI","training_self",7,3,"DarkOrchid","f","accept",3,511
"229","id0011",1,19,0,0,"human","training_self",9,1,"GoldenRod","f","accept",1,570
"230","id0011",1,20,0,0,"human","training_self",5,5,"GoldenRod","f","accept",5,671
"231","id0011",1,21,0,0,"human","training_self",4,6,"GoldenRod","f","accept",6,446
"232","id0011",1,22,0,0,"human","training_self",6,4,"GoldenRod","f","accept",4,557
"233","id0011",1,23,0,0,"human","training_self",6,4,"GoldenRod","f","accept",4,702
"234","id0011",1,24,0,0,"AI","training_self",7,3,"DarkOrchid","f","accept",3,714
"235","id0012",0,1,1,0,"practice","Practice",7,3,"black","j","reject",0,727
"236","id0012",0,2,1,0,"practice","Practice",10,0,"black","j","reject",0,5085
"237","id0012",1,1,0,0,"human","training_others",6,4,"GoldenRod","f","accept",4,814
"238","id0012",1,2,0,0,"human","training_others",7,3,"GoldenRod","f","accept",3,342
"239","id0012",1,3,0,0,"AI","training_others",5,5,"DarkOrchid","f","accept",5,226
"240","id0012",1,4,0,0,"human","training_others",4,6,"GoldenRod","f","accept",6,259
"241","id0012",1,5,0,0,"AI","training_others",8,2,"DarkOrchid","j","reject",0,323
"242","id0012",1,6,0,0,"AI","training_others",7,3,"DarkOrchid","j","reject",0,764
"243","id0012",1,7,0,0,"AI","training_others",6,4,"DarkOrchid","f","accept",4,197
"244","id0012",1,8,0,0,"human","training_others",5,5,"GoldenRod","f","accept",5,99
"245","id0012",1,9,0,0,"AI","training_others",9,1,"DarkOrchid","j","reject",0,265
"246","id0012",1,10,0,0,"AI","training_others",6,4,"DarkOrchid","f","accept",4,402
"247","id0012",1,11,0,1,"human","training_others",8,2,"GoldenRod","j","reject",0,382
"248","id0012",1,12,0,0,"human","training_others",9,1,"GoldenRod","j","reject",0,278
"249","id0012",1,13,0,0,"AI","training_others",4,6,"DarkOrchid","f","accept",6,348
"250","id0012",1,14,0,0,"AI","training_others",4,6,"DarkOrchid","f","accept",6,236
"251","id0012",1,15,0,0,"human","training_others",5,5,"GoldenRod","f","accept",5,252
"252","id0012",1,16,0,0,"human","training_others",9,1,"GoldenRod","j","reject",0,321
"253","id0012",1,17,0,0,"human","training_others",8,2,"GoldenRod","j","reject",0,274
"254","id0012",1,18,0,0,"AI","training_others",4,6,"DarkOrchid","f","accept",6,223
"255","id0012",1,19,0,0,"human","training_others",6,4,"GoldenRod","f","accept",4,280
"256","id0012",1,20,0,0,"AI","training_others",6,4,"DarkOrchid","f","accept",4,287
"257","id0012",1,21,0,0,"AI","training_others",6,4,"DarkOrchid","f","accept",4,286
"258","id0012",1,22,0,0,"human","training_others",7,3,"GoldenRod","f","accept",3,388
"259","id0012",1,23,0,0,"human","training_others",4,6,"GoldenRod","f","accept",6,365
"260","id0012",1,24,0,0,"AI","training_others",5,5,"DarkOrchid","f","accept",5,288
"261","id0014",0,1,1,0,"practice","Practice",10,0,"black","j","reject",0,4020
"262","id0014",0,2,1,0,"practice","Practice",7,3,"black","j","reject",0,2938
"263","id0014",1,1,0,0,"human","training_others",4,6,"DarkOrchid","f","accept",6,1339
"264","id0014",1,2,0,0,"AI","training_others",9,1,"GoldenRod","j","reject",0,869
"265","id0014",1,3,0,0,"AI","training_others",6,4,"GoldenRod","f","accept",4,776
"266","id0014",1,4,0,0,"AI","training_others",5,5,"GoldenRod","f","accept",5,898
"267","id0014",1,5,0,0,"AI","training_others",5,5,"GoldenRod","f","accept",5,755
"268","id0014",1,6,0,0,"human","training_others",6,4,"DarkOrchid","f","accept",4,1148
"269","id0014",1,7,0,1,"human","training_others",8,2,"DarkOrchid","j","reject",0,762
"270","id0014",1,8,0,0,"human","training_others",9,1,"DarkOrchid","j","reject",0,867
"271","id0014",1,9,0,0,"human","training_others",4,6,"DarkOrchid","f","accept",6,797
"272","id0014",1,10,0,0,"AI","training_others",7,3,"GoldenRod","j","reject",0,886
"273","id0014",1,11,0,0,"AI","training_others",8,2,"GoldenRod","j","reject",0,923
"274","id0014",1,12,0,0,"AI","training_others",5,5,"GoldenRod","f","accept",5,651
"275","id0014",1,13,0,0,"human","training_others",7,3,"DarkOrchid","j","reject",0,945
"276","id0014",1,14,0,0,"AI","training_others",4,6,"GoldenRod","f","accept",6,714
"277","id0014",1,15,0,0,"human","training_others",9,1,"DarkOrchid","j","reject",0,882
"278","id0014",1,16,0,0,"human","training_others",7,3,"DarkOrchid","j","reject",0,1040
"279","id0014",1,17,0,0,"human","training_others",8,2,"DarkOrchid","j","reject",0,984
"280","id0014",1,18,0,0,"AI","training_others",6,4,"GoldenRod","f","accept",4,1039
"281","id0014",1,19,0,0,"human","training_others",5,5,"DarkOrchid","f","accept",5,722
"282","id0014",1,20,0,0,"human","training_others",5,5,"DarkOrchid","f","accept",5,754
"283","id0014",1,21,0,0,"AI","training_others",5,5,"GoldenRod","f","accept",5,651
"284","id0014",1,22,0,0,"AI","training_others",5,5,"GoldenRod","f","accept",5,664
"285","id0014",1,23,0,0,"human","training_others",6,4,"DarkOrchid","f","accept",4,882
"286","id0014",1,24,0,0,"AI","training_others",5,5,"GoldenRod","f","accept",5,1076
"287","id0015",0,1,1,0,"practice","Practice",5,5,"black","f","accept",5,499
"288","id0015",0,2,1,0,"practice","Practice",10,0,"black","j","reject",0,743
"289","id0015",1,1,0,0,"AI","training_others",7,3,"DarkOrchid","j","reject",0,1041
"290","id0015",1,2,0,0,"AI","training_others",6,4,"DarkOrchid","f","accept",4,5739
"291","id0015",1,3,0,0,"AI","training_others",5,5,"DarkOrchid","f","accept",5,568
"292","id0015",1,4,0,0,"human","training_others",8,2,"GoldenRod","j","reject",0,555
"293","id0015",1,5,0,0,"human","training_others",4,6,"GoldenRod","f","accept",6,664
"294","id0015",1,6,0,0,"human","training_others",6,4,"GoldenRod","j","reject",0,3063
"295","id0015",1,7,0,0,"human","training_others",7,3,"GoldenRod","j","reject",0,370
"296","id0015",1,8,0,0,"AI","training_others",5,5,"DarkOrchid","f","accept",5,405
"297","id0015",1,9,0,0,"human","training_others",9,1,"GoldenRod","j","reject",0,426
"298","id0015",1,10,0,0,"human","training_others",9,1,"GoldenRod","j","reject",0,427
"299","id0015",1,11,0,0,"AI","training_others",4,6,"DarkOrchid","f","accept",6,396
"300","id0015",1,12,0,0,"human","training_others",6,4,"GoldenRod","j","reject",0,533
"301","id0015",1,13,0,1,"human","training_others",4,6,"GoldenRod","f","accept",6,542
"302","id0015",1,14,0,0,"human","training_others",7,3,"GoldenRod","j","reject",0,404
"303","id0015",1,15,0,0,"AI","training_others",4,6,"DarkOrchid","f","accept",6,492
"304","id0015",1,16,0,0,"AI","training_others",9,1,"DarkOrchid","j","reject",0,455
"305","id0015",1,17,0,0,"human","training_others",8,2,"GoldenRod","j","reject",0,595
"306","id0015",1,18,0,0,"AI","training_others",8,2,"DarkOrchid","j","reject",0,347
"307","id0015",1,19,0,0,"human","training_others",5,5,"GoldenRod","f","accept",5,704
"308","id0015",1,20,0,0,"AI","training_others",8,2,"DarkOrchid","j","reject",0,346
"309","id0015",1,21,0,0,"AI","training_others",5,5,"DarkOrchid","f","accept",5,388
"310","id0015",1,22,0,0,"human","training_others",5,5,"GoldenRod","f","accept",5,401
"311","id0015",1,23,0,0,"AI","training_others",4,6,"DarkOrchid","f","accept",6,407
"312","id0015",1,24,0,0,"AI","training_others",5,5,"DarkOrchid","f","accept",5,442
"313","id0016",0,1,1,0,"practice","Practice",10,0,"black","j","reject",0,641
"314","id0016",0,2,1,0,"practice","Practice",7,3,"black","f","accept",3,873
"315","id0016",1,1,0,0,"AI","control",9,1,"DarkOrchid","j","reject",0,475
"316","id0016",1,2,0,0,"human","control",7,3,"GoldenRod","f","accept",3,559
"317","id0016",1,3,0,0,"AI","control",5,5,"DarkOrchid","f","accept",5,366
"318","id0016",1,4,0,0,"AI","control",7,3,"DarkOrchid","f","accept",3,391
"319","id0016",1,5,0,0,"human","control",5,5,"GoldenRod","f","accept",5,462
"320","id0016",1,6,0,0,"human","control",4,6,"GoldenRod","f","accept",6,400
"321","id0016",1,7,0,0,"human","control",6,4,"GoldenRod","f","accept",4,414
"322","id0016",1,8,0,0,"AI","control",6,4,"DarkOrchid","j","reject",0,469
"323","id0016",1,9,0,0,"AI","control",6,4,"DarkOrchid","f","accept",4,291
"324","id0016",1,10,0,0,"human","control",9,1,"GoldenRod","j","reject",0,380
"325","id0016",1,11,0,0,"human","control",8,2,"GoldenRod","f","accept",2,346
"326","id0016",1,12,0,0,"human","control",5,5,"GoldenRod","f","accept",5,323
"327","id0016",1,13,0,0,"human","control",8,2,"GoldenRod","f","accept",2,231
"328","id0016",1,14,0,1,"AI","control",8,2,"DarkOrchid","f","accept",2,359
"329","id0016",1,15,0,0,"human","control",7,3,"GoldenRod","f","accept",3,346
"330","id0016",1,16,0,0,"human","control",4,6,"GoldenRod","f","accept",6,344
"331","id0016",1,17,0,0,"human","control",9,1,"GoldenRod","j","reject",0,367
"332","id0016",1,18,0,0,"AI","control",7,3,"DarkOrchid","f","accept",3,412
"333","id0016",1,19,0,0,"AI","control",7,3,"DarkOrchid","f","accept",3,364
"334","id0016",1,20,0,0,"AI","control",4,6,"DarkOrchid","f","accept",6,376
"335","id0016",1,21,0,0,"human","control",6,4,"GoldenRod","f","accept",4,332
"336","id0016",1,22,0,0,"AI","control",7,3,"DarkOrchid","f","accept",3,385
"337","id0016",1,23,0,0,"AI","control",6,4,"DarkOrchid","f","accept",4,382
"338","id0016",1,24,0,0,"AI","control",6,4,"DarkOrchid","f","accept",4,315
"339","id0017",0,1,1,0,"practice","Practice",1,9,"black","j","reject",0,2039
"340","id0017",0,2,1,0,"practice","Practice",7,3,"black","f","accept",3,347
"341","id0017",1,1,0,0,"AI","training_self",4,6,"GoldenRod","f","accept",6,2885
"342","id0017",1,2,0,0,"human","training_self",4,6,"DarkOrchid","f","accept",6,1072
"343","id0017",1,3,0,0,"AI","training_self",7,3,"GoldenRod","j","reject",0,362
"344","id0017",1,4,0,0,"AI","training_self",5,5,"GoldenRod","f","accept",5,368
"345","id0017",1,5,0,1,"AI","training_self",8,2,"GoldenRod","j","reject",0,401
"346","id0017",1,6,0,0,"AI","training_self",8,2,"GoldenRod","j","reject",0,377
"347","id0017",1,7,0,0,"AI","training_self",9,1,"GoldenRod","j","reject",0,582
"348","id0017",1,8,0,0,"human","training_self",7,3,"DarkOrchid","j","reject",0,328
"349","id0017",1,9,0,0,"human","training_self",5,5,"DarkOrchid","f","accept",5,422
"350","id0017",1,10,0,0,"AI","training_self",5,5,"GoldenRod","f","accept",5,346
"351","id0017",1,11,0,0,"AI","training_self",8,2,"GoldenRod","j","reject",0,330
"352","id0017",1,12,0,0,"AI","training_self",6,4,"GoldenRod","j","reject",0,1175
"353","id0017",1,13,0,0,"human","training_self",9,1,"DarkOrchid","j","reject",0,359
"354","id0017",1,14,0,0,"human","training_self",5,5,"DarkOrchid","f","accept",5,421
"355","id0017",1,15,0,0,"human","training_self",8,2,"DarkOrchid","j","reject",0,1444
"356","id0017",1,16,0,0,"human","training_self",6,4,"DarkOrchid","j","reject",0,514
"357","id0017",1,17,0,0,"human","training_self",9,1,"DarkOrchid","j","reject",0,417
"358","id0017",1,18,0,0,"human","training_self",8,2,"DarkOrchid","j","reject",0,817
"359","id0017",1,19,0,0,"human","training_self",6,4,"DarkOrchid","j","reject",0,816
"360","id0017",1,20,0,0,"AI","training_self",5,5,"GoldenRod","f","accept",5,386
"361","id0017",1,21,0,0,"human","training_self",7,3,"DarkOrchid","j","reject",0,326
"362","id0017",1,22,0,0,"AI","training_self",4,6,"GoldenRod","j","reject",0,518
"363","id0017",1,23,0,0,"AI","training_self",5,5,"GoldenRod","f","accept",5,617
"364","id0017",1,24,0,0,"human","training_self",4,6,"DarkOrchid","f","accept",6,2753
"365","id0018",0,1,1,0,"practice","Practice",5,5,"black","f","accept",5,1135
"366","id0018",0,2,1,0,"practice","Practice",1,9,"black","f","accept",9,848
"367","id0018",1,1,0,0,"human","training_self",9,1,"DarkOrchid","j","reject",0,738
"368","id0018",1,2,0,0,"AI","training_self",9,1,"GoldenRod","j","reject",0,689
"369","id0018",1,3,0,0,"human","training_self",9,1,"DarkOrchid","j","reject",0,807
"370","id0018",1,4,0,0,"AI","training_self",7,3,"GoldenRod","f","accept",3,1588
"371","id0018",1,5,0,0,"human","training_self",5,5,"DarkOrchid","f","accept",5,284
"372","id0018",1,6,0,0,"human","training_self",4,6,"DarkOrchid","f","accept",6,1522
"373","id0018",1,7,0,0,"human","training_self",7,3,"DarkOrchid","f","accept",3,363
"374","id0018",1,8,0,0,"AI","training_self",6,4,"GoldenRod","f","accept",4,339
"375","id0018",1,9,0,0,"human","training_self",8,2,"DarkOrchid","j","reject",0,356
"376","id0018",1,10,0,0,"human","training_self",7,3,"DarkOrchid","f","accept",3,541
"377","id0018",1,11,0,0,"AI","training_self",6,4,"GoldenRod","f","accept",4,426
"378","id0018",1,12,0,0,"AI","training_self",8,2,"GoldenRod","j","reject",0,793
"379","id0018",1,13,0,0,"human","training_self",5,5,"DarkOrchid","f","accept",5,319
"380","id0018",1,14,0,0,"AI","training_self",4,6,"GoldenRod","f","accept",6,675
"381","id0018",1,15,0,0,"AI","training_self",5,5,"GoldenRod","f","accept",5,322
"382","id0018",1,16,0,1,"human","training_self",4,6,"DarkOrchid","f","accept",6,301
"383","id0018",1,17,0,0,"human","training_self",6,4,"DarkOrchid","f","accept",4,329
"384","id0018",1,18,0,0,"AI","training_self",7,3,"GoldenRod","f","accept",3,1565
"385","id0018",1,19,0,0,"AI","training_self",4,6,"GoldenRod","f","accept",6,946
"386","id0018",1,20,0,0,"AI","training_self",7,3,"GoldenRod","f","accept",3,760
"387","id0018",1,21,0,0,"AI","training_self",6,4,"GoldenRod","f","accept",4,344
"388","id0018",1,22,0,0,"human","training_self",6,4,"DarkOrchid","f","accept",4,691
"389","id0018",1,23,0,0,"human","training_self",8,2,"DarkOrchid","f","accept",2,2730
"390","id0018",1,24,0,0,"AI","training_self",7,3,"GoldenRod","f","accept",3,390
"391","id0019",0,1,1,0,"practice","Practice",8,2,"black","j","reject",0,663
"392","id0019",0,2,1,0,"practice","Practice",10,0,"black","j","reject",0,414
"393","id0019",1,1,0,0,"AI","training_self",5,5,"GoldenRod","f","accept",5,445
"394","id0019",1,2,0,0,"human","training_self",6,4,"DarkOrchid","f","accept",4,641
"395","id0019",1,3,0,0,"AI","training_self",4,6,"GoldenRod","f","accept",6,340
"396","id0019",1,4,0,0,"AI","training_self",6,4,"GoldenRod","f","accept",4,362
"397","id0019",1,5,0,0,"human","training_self",4,6,"DarkOrchid","f","accept",6,333
"398","id0019",1,6,0,0,"AI","training_self",5,5,"GoldenRod","f","accept",5,340
"399","id0019",1,7,0,0,"AI","training_self",8,2,"GoldenRod","j","reject",0,425
"400","id0019",1,8,0,0,"AI","training_self",4,6,"GoldenRod","f","accept",6,379
"401","id0019",1,9,0,0,"human","training_self",5,5,"DarkOrchid","f","accept",5,340
"402","id0019",1,10,0,0,"human","training_self",7,3,"DarkOrchid","j","reject",0,370
"403","id0019",1,23,0,0,"human","training_self",9,1,"DarkOrchid","j","reject",0,327
"404","id0019",1,11,0,0,"AI","training_self",5,5,"GoldenRod","f","accept",5,338
"405","id0019",1,12,0,0,"human","training_self",5,5,"DarkOrchid","f","accept",5,335
"406","id0019",1,13,0,0,"AI","training_self",9,1,"GoldenRod","j","reject",0,357
"407","id0019",1,14,0,0,"human","training_self",4,6,"DarkOrchid","f","accept",6,360
"408","id0019",1,15,0,0,"AI","training_self",7,3,"GoldenRod","j","reject",0,332
"409","id0019",1,16,0,0,"AI","training_self",5,5,"GoldenRod","f","accept",5,392
"410","id0019",1,17,0,0,"human","training_self",8,2,"DarkOrchid","j","reject",0,370
"411","id0019",1,18,0,0,"human","training_self",6,4,"DarkOrchid","f","accept",4,276
"412","id0019",1,19,0,1,"human","training_self",7,3,"DarkOrchid","j","reject",0,452
"413","id0019",1,20,0,0,"human","training_self",8,2,"DarkOrchid","j","reject",0,394
"414","id0019",1,21,0,0,"AI","training_self",5,5,"GoldenRod","f","accept",5,301
"415","id0019",1,22,0,0,"human","training_self",9,1,"DarkOrchid","j","reject",0,395
"416","id0019",1,24,0,0,"AI","training_self",9,1,"GoldenRod","j","reject",0,431
"417","id0020",0,1,1,0,"practice","Practice",1,9,"black","f","accept",9,3312
"418","id0020",0,2,1,0,"practice","Practice",8,2,"black","j","reject",0,3069
"419","id0020",1,1,0,0,"AI","training_others",7,3,"GoldenRod","f","accept",3,1500
"420","id0020",1,2,0,0,"AI","training_others",6,4,"GoldenRod","f","accept",4,1184
"421","id0020",1,3,0,0,"human","training_others",4,6,"DarkOrchid","f","accept",6,498
"422","id0020",1,4,0,0,"human","training_others",9,1,"DarkOrchid","f","accept",1,457
"423","id0020",1,5,0,0,"human","training_others",5,5,"DarkOrchid","f","accept",5,891
"424","id0020",1,6,0,0,"human","training_others",5,5,"DarkOrchid","f","accept",5,442
"425","id0020",1,7,0,0,"human","training_others",8,2,"DarkOrchid","f","accept",2,754
"426","id0020",1,8,0,0,"AI","training_others",4,6,"GoldenRod","f","accept",6,528
"427","id0020",1,9,0,0,"AI","training_others",5,5,"GoldenRod","f","accept",5,486
"428","id0020",1,10,0,0,"AI","training_others",5,5,"GoldenRod","f","accept",5,423
"429","id0020",1,11,0,0,"human","training_others",6,4,"DarkOrchid","f","accept",4,855
"430","id0020",1,12,0,0,"AI","training_others",8,2,"GoldenRod","f","accept",2,489
"431","id0020",1,13,0,0,"AI","training_others",6,4,"GoldenRod","f","accept",4,605
"432","id0020",1,14,0,1,"human","training_others",8,2,"DarkOrchid","f","accept",2,571
"433","id0020",1,15,0,0,"human","training_others",7,3,"DarkOrchid","f","accept",3,580
"434","id0020",1,16,0,0,"AI","training_others",9,1,"GoldenRod","f","accept",1,708
"435","id0020",1,17,0,0,"AI","training_others",7,3,"GoldenRod","f","accept",3,505
"436","id0020",1,18,0,0,"human","training_others",4,6,"DarkOrchid","f","accept",6,1155
"437","id0020",1,19,0,0,"AI","training_others",7,3,"GoldenRod","f","accept",3,801
"438","id0020",1,20,0,0,"AI","training_others",7,3,"GoldenRod","f","accept",3,525
"439","id0020",1,21,0,0,"human","training_others",9,1,"DarkOrchid","f","accept",1,678
"440","id0020",1,22,0,0,"human","training_others",7,3,"DarkOrchid","f","accept",3,644
"441","id0020",1,23,0,0,"human","training_others",6,4,"DarkOrchid","f","accept",4,623
"442","id0020",1,24,0,0,"AI","training_others",5,5,"GoldenRod","f","accept",5,589
"443","id0021",0,1,1,0,"practice","Practice",1,9,"black","f","accept",9,3846
"444","id0021",0,2,1,0,"practice","Practice",4,6,"black","j","reject",0,851
"445","id0021",1,1,0,0,"human","training_self",4,6,"DarkOrchid","f","accept",6,1554
"446","id0021",1,2,0,0,"AI","training_self",8,2,"GoldenRod","j","reject",0,1435
"447","id0021",1,3,0,0,"AI","training_self",9,1,"GoldenRod","f","accept",1,267
"448","id0021",1,4,0,1,"human","training_self",4,6,"DarkOrchid","f","accept",6,1377
"449","id0021",1,5,0,0,"human","training_self",7,3,"DarkOrchid","f","accept",3,1196
"450","id0021",1,6,0,0,"human","training_self",5,5,"DarkOrchid","f","accept",5,416
"451","id0021",1,7,0,0,"AI","training_self",6,4,"GoldenRod","f","accept",4,1572
"452","id0021",1,8,0,0,"AI","training_self",5,5,"GoldenRod","f","accept",5,553
"453","id0021",1,9,0,0,"human","training_self",9,1,"DarkOrchid","j","reject",0,2141
"454","id0021",1,10,0,0,"human","training_self",8,2,"DarkOrchid","j","reject",0,836
"455","id0021",1,11,0,0,"AI","training_self",4,6,"GoldenRod","f","accept",6,580
"456","id0021",1,12,0,0,"human","training_self",6,4,"DarkOrchid","f","accept",4,1707
"457","id0021",1,13,0,0,"AI","training_self",4,6,"GoldenRod","f","accept",6,897
"458","id0021",1,14,0,0,"AI","training_self",5,5,"GoldenRod","f","accept",5,432
"459","id0021",1,15,0,0,"human","training_self",6,4,"DarkOrchid","f","accept",4,1148
"460","id0021",1,16,0,0,"human","training_self",7,3,"DarkOrchid","f","accept",3,942
"461","id0021",1,17,0,0,"AI","training_self",8,2,"GoldenRod","f","accept",2,1184
"462","id0021",1,18,0,0,"AI","training_self",6,4,"GoldenRod","f","accept",4,985
"463","id0021",1,19,0,0,"AI","training_self",7,3,"GoldenRod","f","accept",3,479
"464","id0021",1,20,0,0,"human","training_self",8,2,"DarkOrchid","f","accept",2,849
"465","id0021",1,21,0,0,"human","training_self",5,5,"DarkOrchid","f","accept",5,1107
"466","id0021",1,22,0,0,"AI","training_self",5,5,"GoldenRod","f","accept",5,868
"467","id0021",1,23,0,0,"AI","training_self",4,6,"GoldenRod","f","accept",6,941
"468","id0021",1,24,0,0,"human","training_self",9,1,"DarkOrchid","f","accept",1,1030
"469","id0022",0,1,1,0,"practice","Practice",2,8,"black","f","accept",8,779
"470","id0022",0,2,1,0,"practice","Practice",3,7,"black","f","accept",7,451
"471","id0022",1,1,0,0,"human","training_others",9,1,"DarkOrchid","j","reject",0,826
"472","id0022",1,2,0,0,"human","training_others",5,5,"DarkOrchid","f","accept",5,309
"473","id0022",1,3,0,0,"human","training_others",9,1,"DarkOrchid","j","reject",0,620
"474","id0022",1,4,0,0,"AI","training_others",4,6,"GoldenRod","f","accept",6,674
"475","id0022",1,5,0,0,"AI","training_others",8,2,"GoldenRod","f","accept",2,450
"476","id0022",1,6,0,0,"human","training_others",4,6,"DarkOrchid","f","accept",6,353
"477","id0022",1,7,0,0,"human","training_others",5,5,"DarkOrchid","f","accept",5,411
"478","id0022",1,8,0,0,"AI","training_others",6,4,"GoldenRod","f","accept",4,295
"479","id0022",1,9,0,0,"AI","training_others",7,3,"GoldenRod","f","accept",3,452
"480","id0022",1,10,0,0,"AI","training_others",5,5,"GoldenRod","f","accept",5,329
"481","id0022",1,11,0,0,"AI","training_others",7,3,"GoldenRod","f","accept",3,293
"482","id0022",1,12,0,0,"AI","training_others",4,6,"GoldenRod","f","accept",6,316
"483","id0022",1,13,0,0,"AI","training_others",9,1,"GoldenRod","f","accept",1,87
"484","id0022",1,14,0,0,"human","training_others",8,2,"DarkOrchid","f","accept",2,1903
"485","id0022",1,15,0,0,"AI","training_others",6,4,"GoldenRod","f","accept",4,313
"486","id0022",1,16,0,0,"human","training_others",7,3,"DarkOrchid","f","accept",3,338
"487","id0022",1,17,0,0,"human","training_others",8,2,"DarkOrchid","f","accept",2,307
"488","id0022",1,18,0,0,"AI","training_others",7,3,"GoldenRod","f","accept",3,151
"489","id0022",1,19,0,0,"human","training_others",7,3,"DarkOrchid","f","accept",3,640
"490","id0022",1,20,0,0,"AI","training_others",6,4,"GoldenRod","f","accept",4,1277
"491","id0022",1,21,0,1,"human","training_others",4,6,"DarkOrchid","f","accept",6,417
"492","id0022",1,22,0,0,"human","training_others",6,4,"DarkOrchid","f","accept",4,352
"493","id0022",1,23,0,0,"AI","training_others",4,6,"GoldenRod","f","accept",6,420
"494","id0022",1,24,0,0,"human","training_others",6,4,"DarkOrchid","f","accept",4,282
"495","id0023",0,1,1,0,"practice","Practice",7,3,"black","f","accept",3,1845
"496","id0023",0,2,1,0,"practice","Practice",9,1,"black","j","reject",0,1112
"497","id0023",1,1,0,0,"human","training_others",5,5,"DarkOrchid","f","accept",5,569
"498","id0023",1,2,0,0,"AI","training_others",9,1,"GoldenRod","j","reject",0,367
"499","id0023",1,3,0,0,"AI","training_others",6,4,"GoldenRod","f","accept",4,714
"500","id0023",1,4,0,1,"AI","training_others",8,2,"GoldenRod","j","reject",0,337
"501","id0023",1,5,0,0,"AI","training_others",6,4,"GoldenRod","j","reject",0,1234
"502","id0023",1,6,0,0,"human","training_others",9,1,"DarkOrchid","j","reject",0,2878
"503","id0023",1,7,0,0,"AI","training_others",7,3,"GoldenRod","j","reject",0,1844
"504","id0023",1,8,0,0,"AI","training_others",8,2,"GoldenRod","j","reject",0,2544
"505","id0023",1,9,0,0,"AI","training_others",5,5,"GoldenRod","f","accept",5,522
"506","id0023",1,10,0,0,"human","training_others",6,4,"DarkOrchid","f","accept",4,441
"507","id0023",1,11,0,0,"human","training_others",4,6,"DarkOrchid","f","accept",6,2103
"508","id0023",1,12,0,0,"human","training_others",9,1,"DarkOrchid","j","reject",0,340
"509","id0023",1,13,0,0,"human","training_others",6,4,"DarkOrchid","f","accept",4,2215
"510","id0023",1,14,0,0,"human","training_others",8,2,"DarkOrchid","j","reject",0,2862
"511","id0023",1,15,0,0,"AI","training_others",4,6,"GoldenRod","f","accept",6,3393
"512","id0023",1,16,0,0,"human","training_others",7,3,"DarkOrchid","j","reject",0,2096
"513","id0023",1,17,0,0,"AI","training_others",5,5,"GoldenRod","f","accept",5,2430
"514","id0023",1,18,0,0,"human","training_others",7,3,"DarkOrchid","j","reject",0,525
"515","id0023",1,19,0,0,"AI","training_others",6,4,"GoldenRod","f","accept",4,757
"516","id0023",1,20,0,0,"AI","training_others",4,6,"GoldenRod","f","accept",6,454
"517","id0023",1,21,0,0,"human","training_others",8,2,"DarkOrchid","j","reject",0,417
"518","id0023",1,22,0,0,"human","training_others",4,6,"DarkOrchid","f","accept",6,2254
"519","id0023",1,23,0,0,"AI","training_others",6,4,"GoldenRod","j","reject",0,529
"520","id0023",1,24,0,0,"human","training_others",5,5,"DarkOrchid","f","accept",5,463
"521","id0024",0,1,1,0,"practice","Practice",10,0,"black","f","accept",0,3629
"522","id0024",0,2,1,0,"practice","Practice",8,2,"black","j","reject",0,982
"523","id0024",1,1,0,0,"human","control",7,3,"DarkOrchid","f","accept",3,7966
"524","id0024",1,2,0,0,"AI","control",4,6,"GoldenRod","j","reject",0,1998
"525","id0024",1,3,0,0,"human","control",8,2,"DarkOrchid","f","accept",2,702
"526","id0024",1,4,0,0,"AI","control",5,5,"GoldenRod","j","reject",0,1497
"527","id0024",1,5,0,0,"AI","control",6,4,"GoldenRod","f","accept",4,455
"528","id0024",1,6,0,0,"human","control",7,3,"DarkOrchid","f","accept",3,365
"529","id0024",1,7,0,0,"human","control",5,5,"DarkOrchid","j","reject",0,536
"530","id0024",1,8,0,0,"human","control",9,1,"DarkOrchid","f","accept",1,442
"531","id0024",1,9,0,0,"human","control",6,4,"DarkOrchid","f","accept",4,601
"532","id0024",1,10,0,1,"human","control",4,6,"DarkOrchid","j","reject",0,983
"533","id0024",1,11,0,0,"human","control",8,2,"DarkOrchid","f","accept",2,575
"534","id0024",1,12,0,0,"AI","control",9,1,"GoldenRod","f","accept",1,390
"535","id0024",1,13,0,0,"AI","control",5,5,"GoldenRod","j","reject",0,1028
"536","id0024",1,14,0,0,"human","control",4,6,"DarkOrchid","j","reject",0,449
"537","id0024",1,15,0,0,"AI","control",8,2,"GoldenRod","f","accept",2,548
"538","id0024",1,16,0,0,"AI","control",4,6,"GoldenRod","j","reject",0,596
"539","id0024",1,17,0,0,"human","control",9,1,"DarkOrchid","f","accept",1,858
"540","id0024",1,18,0,0,"human","control",5,5,"DarkOrchid","j","reject",0,700
"541","id0024",1,19,0,0,"AI","control",7,3,"GoldenRod","f","accept",3,823
"542","id0024",1,20,0,0,"AI","control",5,5,"GoldenRod","j","reject",0,1272
"543","id0024",1,21,0,0,"human","control",6,4,"DarkOrchid","f","accept",4,642
"544","id0024",1,22,0,0,"AI","control",8,2,"GoldenRod","f","accept",2,608
"545","id0024",1,23,0,0,"AI","control",6,4,"GoldenRod","f","accept",4,588
"546","id0024",1,24,0,0,"AI","control",5,5,"GoldenRod","j","reject",0,1066
"547","id0026",0,1,1,0,"practice","Practice",10,0,"black","f","accept",0,2082
"548","id0026",0,2,1,0,"practice","Practice",5,5,"black","f","accept",5,450
"549","id0026",1,1,0,0,"human","control",5,5,"GoldenRod","f","accept",5,396
"550","id0026",1,2,0,0,"human","control",9,1,"GoldenRod","j","reject",0,1260
"551","id0026",1,3,0,0,"human","control",7,3,"GoldenRod","j","reject",0,491
"552","id0026",1,4,0,0,"human","control",4,6,"GoldenRod","f","accept",6,467
"553","id0026",1,5,0,0,"AI","control",6,4,"DarkOrchid","f","accept",4,629
"554","id0026",1,6,0,0,"human","control",7,3,"GoldenRod","j","reject",0,438
"555","id0026",1,7,0,0,"AI","control",4,6,"DarkOrchid","f","accept",6,175
"556","id0026",1,8,0,0,"AI","control",4,6,"DarkOrchid","f","accept",6,422
"557","id0026",1,9,0,1,"human","control",4,6,"GoldenRod","f","accept",6,197
"558","id0026",1,10,0,0,"human","control",5,5,"GoldenRod","f","accept",5,434
"559","id0026",1,11,0,0,"AI","control",8,2,"DarkOrchid","j","reject",0,467
"560","id0026",1,12,0,0,"AI","control",9,1,"DarkOrchid","j","reject",0,313
"561","id0026",1,13,0,0,"AI","control",4,6,"DarkOrchid","f","accept",6,340
"562","id0026",1,14,0,0,"human","control",8,2,"GoldenRod","j","reject",0,356
"563","id0026",1,15,0,0,"AI","control",7,3,"DarkOrchid","j","reject",0,648
"564","id0026",1,16,0,0,"human","control",9,1,"GoldenRod","j","reject",0,318
"565","id0026",1,17,0,0,"human","control",6,4,"GoldenRod","f","accept",4,519
"566","id0026",1,18,0,0,"AI","control",7,3,"DarkOrchid","j","reject",0,373
"567","id0026",1,19,0,0,"AI","control",5,5,"DarkOrchid","f","accept",5,324
"568","id0026",1,20,0,0,"AI","control",8,2,"DarkOrchid","j","reject",0,57
"569","id0026",1,21,0,0,"human","control",6,4,"GoldenRod","f","accept",4,1454
"570","id0026",1,22,0,0,"human","control",8,2,"GoldenRod","j","reject",0,463
"571","id0026",1,23,0,0,"AI","control",7,3,"DarkOrchid","j","reject",0,442
"572","id0026",1,24,0,0,"AI","control",4,6,"DarkOrchid","f","accept",6,596
"573","id0027",0,1,1,0,"practice","Practice",1,9,"black","f","accept",9,340
"574","id0027",0,2,1,0,"practice","Practice",5,5,"black","f","accept",5,274
"575","id0027",1,1,0,0,"human","training_self",9,1,"DarkOrchid","j","reject",0,289
"576","id0027",1,2,0,0,"AI","training_self",4,6,"GoldenRod","f","accept",6,286
"577","id0027",1,3,0,0,"human","training_self",7,3,"DarkOrchid","j","reject",0,312
"578","id0027",1,4,0,0,"AI","training_self",9,1,"GoldenRod","j","reject",0,361
"579","id0027",1,5,0,0,"AI","training_self",7,3,"GoldenRod","j","reject",0,247
"580","id0027",1,6,0,0,"human","training_self",6,4,"DarkOrchid","j","reject",0,317
"581","id0027",1,7,0,0,"human","training_self",9,1,"DarkOrchid","j","reject",0,269
"582","id0027",1,8,0,0,"human","training_self",8,2,"DarkOrchid","j","reject",0,30
"583","id0027",1,9,0,0,"AI","training_self",8,2,"GoldenRod","j","reject",0,240
"584","id0027",1,10,0,0,"human","training_self",8,2,"DarkOrchid","j","reject",0,388
"585","id0027",1,11,0,0,"human","training_self",5,5,"DarkOrchid","f","accept",5,261
"586","id0027",1,12,0,0,"AI","training_self",5,5,"GoldenRod","f","accept",5,262
"587","id0027",1,13,0,0,"AI","training_self",6,4,"GoldenRod","j","reject",0,341
"588","id0027",1,14,0,0,"human","training_self",4,6,"DarkOrchid","f","accept",6,296
"589","id0027",1,15,0,0,"AI","training_self",8,2,"GoldenRod","j","reject",0,281
"590","id0027",1,16,0,1,"AI","training_self",7,3,"GoldenRod","j","reject",0,305
"591","id0027",1,17,0,0,"AI","training_self",6,4,"GoldenRod","j","reject",0,75
"592","id0027",1,18,0,0,"human","training_self",6,4,"DarkOrchid","j","reject",0,325
"593","id0027",1,19,0,0,"AI","training_self",5,5,"GoldenRod","f","accept",5,299
"594","id0027",1,20,0,0,"AI","training_self",4,6,"GoldenRod","f","accept",6,330
"595","id0027",1,21,0,0,"human","training_self",4,6,"DarkOrchid","f","accept",6,170
"596","id0027",1,22,0,0,"human","training_self",5,5,"DarkOrchid","f","accept",5,328
"597","id0027",1,23,0,0,"human","training_self",7,3,"DarkOrchid","j","reject",0,305
"598","id0027",1,24,0,0,"AI","training_self",4,6,"GoldenRod","f","accept",6,286
"599","id0028",0,1,1,0,"practice","Practice",6,4,"black","f","accept",4,664
"600","id0028",0,2,1,0,"practice","Practice",3,7,"black","f","accept",7,1612
"601","id0028",1,1,0,0,"AI","training_self",5,5,"DarkOrchid","f","accept",5,387
"602","id0028",1,2,0,0,"AI","training_self",6,4,"DarkOrchid","f","accept",4,500
"603","id0028",1,3,0,0,"human","training_self",9,1,"GoldenRod","j","reject",0,1238
"604","id0028",1,4,0,0,"human","training_self",7,3,"GoldenRod","f","accept",3,558
"605","id0028",1,5,0,1,"human","training_self",5,5,"GoldenRod","f","accept",5,468
"606","id0028",1,6,0,0,"human","training_self",6,4,"GoldenRod","f","accept",4,614
"607","id0028",1,7,0,0,"AI","training_self",7,3,"DarkOrchid","f","accept",3,473
"608","id0028",1,8,0,0,"human","training_self",5,5,"GoldenRod","f","accept",5,932
"609","id0028",1,9,0,0,"AI","training_self",7,3,"DarkOrchid","f","accept",3,378
"610","id0028",1,10,0,0,"AI","training_self",5,5,"DarkOrchid","f","accept",5,364
"611","id0028",1,11,0,0,"AI","training_self",8,2,"DarkOrchid","j","reject",0,463
"612","id0028",1,12,0,0,"AI","training_self",4,6,"DarkOrchid","f","accept",6,395
"613","id0028",1,13,0,0,"human","training_self",8,2,"GoldenRod","j","reject",0,434
"614","id0028",1,14,0,0,"human","training_self",4,6,"GoldenRod","f","accept",6,499
"615","id0028",1,15,0,0,"AI","training_self",6,4,"DarkOrchid","f","accept",4,505
"616","id0028",1,16,0,0,"human","training_self",8,2,"GoldenRod","j","reject",0,516
"617","id0028",1,17,0,0,"human","training_self",6,4,"GoldenRod","f","accept",4,591
"618","id0028",1,18,0,0,"human","training_self",7,3,"GoldenRod","j","reject",0,1889
"619","id0028",1,19,0,0,"AI","training_self",9,1,"DarkOrchid","j","reject",0,443
"620","id0028",1,20,0,0,"AI","training_self",4,6,"DarkOrchid","f","accept",6,413
"621","id0028",1,21,0,0,"AI","training_self",6,4,"DarkOrchid","f","accept",4,476
"622","id0028",1,22,0,0,"human","training_self",4,6,"GoldenRod","f","accept",6,507
"623","id0028",1,23,0,0,"AI","training_self",7,3,"DarkOrchid","f","accept",3,420
"624","id0028",1,24,0,0,"human","training_self",9,1,"GoldenRod","j","reject",0,1042
"625","id0031",0,1,1,0,"practice","Practice",9,1,"black","f","accept",1,2425
"626","id0031",0,2,1,0,"practice","Practice",6,4,"black","f","accept",4,596
"627","id0031",1,1,0,0,"human","training_self",6,4,"DarkOrchid","f","accept",4,1312
"628","id0031",1,2,0,0,"AI","training_self",4,6,"GoldenRod","f","accept",6,420
"629","id0031",1,3,0,0,"AI","training_self",6,4,"GoldenRod","f","accept",4,405
"630","id0031",1,4,0,0,"AI","training_self",8,2,"GoldenRod","f","accept",2,379
"631","id0031",1,5,0,0,"human","training_self",9,1,"DarkOrchid","f","accept",1,1104
"632","id0031",1,6,0,0,"human","training_self",6,4,"DarkOrchid","f","accept",4,757
"633","id0031",1,7,0,0,"human","training_self",9,1,"DarkOrchid","f","accept",1,1384
"634","id0031",1,8,0,0,"human","training_self",5,5,"DarkOrchid","f","accept",5,441
"635","id0031",1,9,0,0,"AI","training_self",5,5,"GoldenRod","f","accept",5,488
"636","id0031",1,10,0,0,"AI","training_self",8,2,"GoldenRod","f","accept",2,423
"637","id0031",1,11,0,0,"AI","training_self",7,3,"GoldenRod","f","accept",3,461
"638","id0031",1,12,0,1,"human","training_self",8,2,"DarkOrchid","f","accept",2,364
"639","id0031",1,13,0,0,"human","training_self",4,6,"DarkOrchid","f","accept",6,391
"640","id0031",1,14,0,0,"human","training_self",8,2,"DarkOrchid","f","accept",2,493
"641","id0031",1,15,0,0,"human","training_self",4,6,"DarkOrchid","f","accept",6,346
"642","id0031",1,16,0,0,"AI","training_self",9,1,"GoldenRod","f","accept",1,3453
"643","id0031",1,17,0,0,"human","training_self",7,3,"DarkOrchid","f","accept",3,2898
"644","id0031",1,18,0,0,"AI","training_self",6,4,"GoldenRod","f","accept",4,1528
"645","id0031",1,19,0,0,"AI","training_self",6,4,"GoldenRod","f","accept",4,722
"646","id0031",1,20,0,0,"human","training_self",5,5,"DarkOrchid","f","accept",5,2562
"647","id0031",1,21,0,0,"AI","training_self",4,6,"GoldenRod","f","accept",6,2013
"648","id0031",1,22,0,0,"AI","training_self",4,6,"GoldenRod","f","accept",6,424
"649","id0031",1,23,0,0,"AI","training_self",5,5,"GoldenRod","f","accept",5,472
"650","id0031",1,24,0,0,"human","training_self",7,3,"DarkOrchid","f","accept",3,451
"651","id0032",0,1,1,0,"practice","Practice",2,8,"black","f","accept",8,520
"652","id0032",0,2,1,0,"practice","Practice",2,8,"black","f","accept",8,405
"653","id0032",1,1,0,0,"AI","training_self",6,4,"GoldenRod","f","accept",4,31
"654","id0032",1,2,0,0,"human","training_self",7,3,"DarkOrchid","f","accept",3,465
"655","id0032",1,3,0,0,"human","training_self",7,3,"DarkOrchid","f","accept",3,545
"656","id0032",1,4,0,1,"human","training_self",9,1,"DarkOrchid","j","reject",0,373
"657","id0032",1,5,0,0,"AI","training_self",7,3,"GoldenRod","f","accept",3,905
"658","id0032",1,6,0,0,"AI","training_self",7,3,"GoldenRod","f","accept",3,530
"659","id0032",1,7,0,0,"AI","training_self",9,1,"GoldenRod","j","reject",0,89
"660","id0032",1,8,0,0,"human","training_self",6,4,"DarkOrchid","f","accept",4,477
"661","id0032",1,9,0,0,"AI","training_self",5,5,"GoldenRod","f","accept",5,44
"662","id0032",1,10,0,0,"human","training_self",8,2,"DarkOrchid","j","reject",0,352
"663","id0032",1,11,0,0,"human","training_self",6,4,"DarkOrchid","f","accept",4,402
"664","id0032",1,12,0,0,"human","training_self",4,6,"DarkOrchid","f","accept",6,15
"665","id0032",1,13,0,0,"human","training_self",9,1,"DarkOrchid","j","reject",0,149
"666","id0032",1,14,0,0,"AI","training_self",8,2,"GoldenRod","f","accept",2,1046
"667","id0032",1,15,0,0,"AI","training_self",4,6,"GoldenRod","f","accept",6,175
"668","id0032",1,16,0,0,"human","training_self",5,5,"DarkOrchid","f","accept",5,31
"669","id0032",1,17,0,0,"AI","training_self",4,6,"GoldenRod","f","accept",6,189
"670","id0032",1,18,0,0,"human","training_self",4,6,"DarkOrchid","f","accept",6,199
"671","id0032",1,19,0,0,"AI","training_self",5,5,"GoldenRod","f","accept",5,585
"672","id0032",1,20,0,0,"AI","training_self",7,3,"GoldenRod","f","accept",3,235
"673","id0032",1,21,0,0,"AI","training_self",5,5,"GoldenRod","f","accept",5,23
"674","id0032",1,22,0,0,"human","training_self",5,5,"DarkOrchid","f","accept",5,127
"675","id0032",1,23,0,0,"human","training_self",8,2,"DarkOrchid","j","reject",0,170
"676","id0032",1,24,0,0,"AI","training_self",6,4,"GoldenRod","f","accept",4,204
"677","id0034",0,1,1,0,"practice","Practice",3,7,"black","j","reject",0,767
"678","id0034",0,2,1,0,"practice","Practice",5,5,"black","f","accept",5,1880
"679","id0034",1,1,0,0,"AI","control",8,2,"GoldenRod","j","reject",0,656
"680","id0034",1,2,0,0,"human","control",7,3,"DarkOrchid","j","reject",0,713
"681","id0034",1,3,0,0,"human","control",9,1,"DarkOrchid","j","reject",0,308
"682","id0034",1,4,0,0,"human","control",4,6,"DarkOrchid","j","reject",0,388
"683","id0034",1,5,0,0,"human","control",8,2,"DarkOrchid","j","reject",0,160
"684","id0034",1,6,0,0,"human","control",7,3,"DarkOrchid","j","reject",0,366
"685","id0034",1,7,0,0,"AI","control",4,6,"GoldenRod","f","accept",6,2189
"686","id0034",1,8,0,0,"human","control",6,4,"DarkOrchid","j","reject",0,479
"687","id0034",1,9,0,0,"AI","control",7,3,"GoldenRod","j","reject",0,575
"688","id0034",1,10,0,0,"AI","control",5,5,"GoldenRod","f","accept",5,455
"689","id0034",1,11,0,0,"human","control",6,4,"DarkOrchid","j","reject",0,649
"690","id0034",1,12,0,0,"AI","control",5,5,"GoldenRod","f","accept",5,576
"691","id0034",1,13,0,0,"AI","control",5,5,"GoldenRod","f","accept",5,589
"692","id0034",1,14,0,0,"AI","control",9,1,"GoldenRod","j","reject",0,758
"693","id0034",1,15,0,1,"human","control",8,2,"DarkOrchid","j","reject",0,1027
"694","id0034",1,16,0,0,"human","control",9,1,"DarkOrchid","j","reject",0,1259
"695","id0034",1,17,0,0,"AI","control",6,4,"GoldenRod","j","reject",0,3023
"696","id0034",1,18,0,0,"AI","control",6,4,"GoldenRod","j","reject",0,964
"697","id0034",1,19,0,0,"human","control",5,5,"DarkOrchid","f","accept",5,468
"698","id0034",1,20,0,0,"AI","control",4,6,"GoldenRod","j","reject",0,689
"699","id0034",1,21,0,0,"AI","control",5,5,"GoldenRod","f","accept",5,697
"700","id0034",1,22,0,0,"human","control",4,6,"DarkOrchid","j","reject",0,684
"701","id0034",1,23,0,0,"human","control",5,5,"DarkOrchid","f","accept",5,78
"702","id0034",1,24,0,0,"AI","control",6,4,"GoldenRod","j","reject",0,379
"703","id0035",0,1,1,0,"practice","Practice",1,9,"black","f","accept",9,478
"704","id0035",0,2,1,0,"practice","Practice",6,4,"black","f","accept",4,228
"705","id0035",1,1,0,0,"human","control",5,5,"GoldenRod","f","accept",5,588
"706","id0035",1,2,0,0,"human","control",8,2,"GoldenRod","f","accept",2,5740
"707","id0035",1,3,0,0,"AI","control",9,1,"DarkOrchid","f","accept",1,4396
"708","id0035",1,4,0,0,"AI","control",4,6,"DarkOrchid","f","accept",6,620
"709","id0035",1,5,0,0,"human","control",7,3,"GoldenRod","f","accept",3,1212
"710","id0035",1,6,0,0,"AI","control",8,2,"DarkOrchid","f","accept",2,629
"711","id0035",1,7,0,0,"human","control",7,3,"GoldenRod","f","accept",3,1205
"712","id0035",1,8,0,0,"AI","control",7,3,"DarkOrchid","f","accept",3,4773
"713","id0035",1,9,0,1,"AI","control",4,6,"DarkOrchid","f","accept",6,1149
"714","id0035",1,10,0,0,"AI","control",6,4,"DarkOrchid","f","accept",4,2061
"715","id0035",1,11,0,0,"AI","control",6,4,"DarkOrchid","f","accept",4,461
"716","id0035",1,12,0,0,"human","control",4,6,"GoldenRod","f","accept",6,693
"717","id0035",1,13,0,0,"human","control",4,6,"GoldenRod","f","accept",6,853
"718","id0035",1,14,0,0,"AI","control",5,5,"DarkOrchid","f","accept",5,1222
"719","id0035",1,15,0,0,"human","control",5,5,"GoldenRod","f","accept",5,557
"720","id0035",1,16,0,0,"AI","control",4,6,"DarkOrchid","f","accept",6,374
"721","id0035",1,17,0,0,"AI","control",6,4,"DarkOrchid","f","accept",4,822
"722","id0035",1,18,0,0,"AI","control",6,4,"DarkOrchid","f","accept",4,606
"723","id0035",1,19,0,0,"human","control",9,1,"GoldenRod","f","accept",1,1174
"724","id0035",1,20,0,0,"human","control",9,1,"GoldenRod","f","accept",1,1430
"725","id0035",1,21,0,0,"human","control",6,4,"GoldenRod","f","accept",4,1326
"726","id0035",1,22,0,0,"human","control",8,2,"GoldenRod","f","accept",2,1374
"727","id0035",1,23,0,0,"human","control",6,4,"GoldenRod","f","accept",4,1470
"728","id0035",1,24,0,0,"AI","control",6,4,"DarkOrchid","f","accept",4,735
"729","id0036",0,1,1,0,"practice","Practice",4,6,"black","f","accept",6,2396
"730","id0036",0,2,1,0,"practice","Practice",3,7,"black","f","accept",7,1573
"731","id0036",1,1,0,0,"AI","training_self",4,6,"GoldenRod","f","accept",6,1423
"732","id0036",1,2,0,0,"human","training_self",8,2,"DarkOrchid","j","reject",0,1209
"733","id0036",1,3,0,0,"AI","training_self",9,1,"GoldenRod","j","reject",0,751
"734","id0036",1,4,0,1,"AI","training_self",5,5,"GoldenRod","f","accept",5,557
"735","id0036",1,5,0,0,"AI","training_self",8,2,"GoldenRod","j","reject",0,6375
"736","id0036",1,6,0,0,"human","training_self",9,1,"DarkOrchid","j","reject",0,1611
"737","id0036",1,7,0,0,"human","training_self",7,3,"DarkOrchid","f","accept",3,7168
"738","id0036",1,8,0,0,"human","training_self",5,5,"DarkOrchid","f","accept",5,3152
"739","id0036",1,9,0,0,"human","training_self",6,4,"DarkOrchid","f","accept",4,5081
"740","id0036",1,10,0,0,"human","training_self",5,5,"DarkOrchid","f","accept",5,1660
"741","id0036",1,11,0,0,"AI","training_self",5,5,"GoldenRod","f","accept",5,742
"742","id0036",1,12,0,0,"human","training_self",7,3,"DarkOrchid","f","accept",3,3130
"743","id0036",1,13,0,0,"human","training_self",4,6,"DarkOrchid","f","accept",6,851
"744","id0036",1,14,0,0,"AI","training_self",6,4,"GoldenRod","f","accept",4,1045
"745","id0036",1,15,0,0,"human","training_self",6,4,"DarkOrchid","f","accept",4,1284
"746","id0036",1,16,0,0,"AI","training_self",7,3,"GoldenRod","f","accept",3,810
"747","id0036",1,17,0,0,"human","training_self",8,2,"DarkOrchid","j","reject",0,1336
"748","id0036",1,18,0,0,"human","training_self",4,6,"DarkOrchid","f","accept",6,244
"749","id0036",1,19,0,0,"AI","training_self",4,6,"GoldenRod","f","accept",6,747
"750","id0036",1,20,0,0,"AI","training_self",6,4,"GoldenRod","f","accept",4,1109
"751","id0036",1,21,0,0,"AI","training_self",6,4,"GoldenRod","f","accept",4,5434
"752","id0036",1,22,0,0,"AI","training_self",6,4,"GoldenRod","f","accept",4,912
"753","id0036",1,23,0,0,"AI","training_self",7,3,"GoldenRod","f","accept",3,1099
"754","id0036",1,24,0,0,"human","training_self",9,1,"DarkOrchid","j","reject",0,1412
"755","id0037",0,1,1,0,"practice","Practice",4,6,"black","f","accept",6,619
"756","id0037",0,2,1,0,"practice","Practice",7,3,"black","f","accept",3,445
"757","id0037",1,1,0,0,"human","training_others",9,1,"GoldenRod","f","accept",1,486
"758","id0037",1,2,0,1,"AI","training_others",6,4,"DarkOrchid","f","accept",4,1378
"759","id0037",1,3,0,0,"AI","training_others",4,6,"DarkOrchid","f","accept",6,827
"760","id0037",1,4,0,0,"AI","training_others",9,1,"DarkOrchid","f","accept",1,311
"761","id0037",1,5,0,0,"human","training_others",5,5,"GoldenRod","f","accept",5,2223
"762","id0037",1,6,0,0,"AI","training_others",5,5,"DarkOrchid","f","accept",5,1519
"763","id0037",1,7,0,0,"AI","training_others",5,5,"DarkOrchid","f","accept",5,1116
"764","id0037",1,8,0,0,"human","training_others",8,2,"GoldenRod","f","accept",2,546
"765","id0037",1,9,0,0,"AI","training_others",8,2,"DarkOrchid","f","accept",2,1592
"766","id0037",1,10,0,0,"AI","training_others",7,3,"DarkOrchid","f","accept",3,1203
"767","id0037",1,11,0,0,"AI","training_others",5,5,"DarkOrchid","f","accept",5,517
"768","id0037",1,12,0,0,"human","training_others",9,1,"GoldenRod","f","accept",1,1127
"769","id0037",1,13,0,0,"human","training_others",8,2,"GoldenRod","f","accept",2,2555
"770","id0037",1,14,0,0,"human","training_others",6,4,"GoldenRod","f","accept",4,544
"771","id0037",1,15,0,0,"human","training_others",5,5,"GoldenRod","f","accept",5,1188
"772","id0037",1,16,0,0,"human","training_others",7,3,"GoldenRod","f","accept",3,4321
"773","id0037",1,17,0,0,"human","training_others",7,3,"GoldenRod","f","accept",3,4573
"774","id0037",1,18,0,0,"AI","training_others",5,5,"DarkOrchid","f","accept",5,1946
"775","id0037",1,19,0,0,"human","training_others",4,6,"GoldenRod","f","accept",6,2996
"776","id0037",1,20,0,0,"human","training_others",4,6,"GoldenRod","f","accept",6,747
"777","id0037",1,21,0,0,"AI","training_others",5,5,"DarkOrchid","f","accept",5,217
"778","id0037",1,22,0,0,"AI","training_others",5,5,"DarkOrchid","f","accept",5,878
"779","id0037",1,23,0,0,"human","training_others",6,4,"GoldenRod","f","accept",4,1288
"780","id0037",1,24,0,0,"AI","training_others",5,5,"DarkOrchid","f","accept",5,1173
"781","id0039",0,1,1,0,"practice","Practice",10,0,"black","j","reject",0,1458
"782","id0039",0,2,1,0,"practice","Practice",7,3,"black","j","reject",0,453
"783","id0039",1,1,0,0,"AI","training_others",9,1,"GoldenRod","f","accept",1,676
"784","id0039",1,2,0,0,"human","training_others",7,3,"DarkOrchid","f","accept",3,555
"785","id0039",1,3,0,0,"human","training_others",5,5,"DarkOrchid","f","accept",5,300
"786","id0039",1,4,0,0,"AI","training_others",6,4,"GoldenRod","f","accept",4,413
"787","id0039",1,5,0,0,"AI","training_others",5,5,"GoldenRod","f","accept",5,530
"788","id0039",1,6,0,0,"human","training_others",8,2,"DarkOrchid","f","accept",2,283
"789","id0039",1,7,0,0,"AI","training_others",7,3,"GoldenRod","f","accept",3,622
"790","id0039",1,8,0,0,"human","training_others",6,4,"DarkOrchid","f","accept",4,386
"791","id0039",1,9,0,0,"AI","training_others",8,2,"GoldenRod","f","accept",2,462
"792","id0039",1,10,0,0,"human","training_others",4,6,"DarkOrchid","f","accept",6,355
"793","id0039",1,11,0,0,"AI","training_others",5,5,"GoldenRod","f","accept",5,372
"794","id0039",1,12,0,0,"AI","training_others",4,6,"GoldenRod","f","accept",6,431
"795","id0039",1,13,0,0,"human","training_others",5,5,"DarkOrchid","f","accept",5,575
"796","id0039",1,14,0,1,"human","training_others",4,6,"DarkOrchid","f","accept",6,356
"797","id0039",1,15,0,0,"AI","training_others",4,6,"GoldenRod","f","accept",6,365
"798","id0039",1,16,0,0,"human","training_others",7,3,"DarkOrchid","f","accept",3,410
"799","id0039",1,17,0,0,"human","training_others",9,1,"DarkOrchid","f","accept",1,286
"800","id0039",1,18,0,0,"AI","training_others",5,5,"GoldenRod","f","accept",5,357
"801","id0039",1,19,0,0,"human","training_others",6,4,"DarkOrchid","f","accept",4,330
"802","id0039",1,20,0,0,"AI","training_others",4,6,"GoldenRod","f","accept",6,292
"803","id0039",1,21,0,0,"AI","training_others",6,4,"GoldenRod","f","accept",4,391
"804","id0039",1,22,0,0,"human","training_others",8,2,"DarkOrchid","f","accept",2,380
"805","id0039",1,23,0,0,"AI","training_others",5,5,"GoldenRod","f","accept",5,472
"806","id0039",1,24,0,0,"human","training_others",9,1,"DarkOrchid","f","accept",1,690
"807","id0040",0,1,1,0,"practice","Practice",1,9,"black","f","accept",9,4791
"808","id0040",0,2,1,0,"practice","Practice",2,8,"black","f","accept",8,369
"809","id0040",1,1,0,1,"AI","training_others",7,3,"DarkOrchid","j","reject",0,409
"810","id0040",1,2,0,0,"human","training_others",8,2,"GoldenRod","j","reject",0,1571
"811","id0040",1,3,0,0,"AI","training_others",6,4,"DarkOrchid","f","accept",4,91
"812","id0040",1,4,0,0,"human","training_others",7,3,"GoldenRod","j","reject",0,26
"813","id0040",1,5,0,0,"AI","training_others",6,4,"DarkOrchid","f","accept",4,1184
"814","id0040",1,6,0,0,"AI","training_others",9,1,"DarkOrchid","j","reject",0,12
"815","id0040",1,7,0,0,"human","training_others",6,4,"GoldenRod","f","accept",4,1153
"816","id0040",1,8,0,0,"AI","training_others",5,5,"DarkOrchid","f","accept",5,474
"817","id0040",1,9,0,0,"AI","training_others",4,6,"DarkOrchid","f","accept",6,402
"818","id0040",1,10,0,0,"human","training_others",7,3,"GoldenRod","j","reject",0,417
"819","id0040",1,11,0,0,"human","training_others",5,5,"GoldenRod","f","accept",5,606
"820","id0040",1,12,0,0,"human","training_others",4,6,"GoldenRod","f","accept",6,749
"821","id0040",1,13,0,0,"human","training_others",9,1,"GoldenRod","j","reject",0,840
"822","id0040",1,14,0,0,"human","training_others",9,1,"GoldenRod","j","reject",0,692
"823","id0040",1,15,0,0,"human","training_others",6,4,"GoldenRod","f","accept",4,550
"824","id0040",1,16,0,0,"AI","training_others",8,2,"DarkOrchid","j","reject",0,928
"825","id0040",1,17,0,0,"AI","training_others",5,5,"DarkOrchid","f","accept",5,547
"826","id0040",1,18,0,0,"human","training_others",5,5,"GoldenRod","f","accept",5,691
"827","id0040",1,19,0,0,"AI","training_others",4,6,"DarkOrchid","f","accept",6,527
"828","id0040",1,20,0,0,"human","training_others",8,2,"GoldenRod","j","reject",0,567
"829","id0040",1,21,0,0,"AI","training_others",5,5,"DarkOrchid","f","accept",5,445
"830","id0040",1,22,0,0,"human","training_others",4,6,"GoldenRod","f","accept",6,245
"831","id0040",1,23,0,0,"AI","training_others",5,5,"DarkOrchid","f","accept",5,492
"832","id0040",1,24,0,0,"AI","training_others",6,4,"DarkOrchid","f","accept",4,465
"833","id0041",0,1,1,0,"practice","Practice",9,1,"black","f","accept",1,4443
"834","id0041",0,2,1,0,"practice","Practice",9,1,"black","j","reject",0,1858
"835","id0041",1,1,0,0,"AI","training_others",4,6,"GoldenRod","f","accept",6,1474
"836","id0041",1,2,0,0,"human","training_others",7,3,"DarkOrchid","f","accept",3,1065
"837","id0041",1,3,0,0,"human","training_others",9,1,"DarkOrchid","j","reject",0,1103
"838","id0041",1,4,0,0,"human","training_others",8,2,"DarkOrchid","j","reject",0,1215
"839","id0041",1,5,0,1,"human","training_others",4,6,"DarkOrchid","f","accept",6,87
"840","id0041",1,6,0,0,"human","training_others",8,2,"DarkOrchid","j","reject",0,311
"841","id0041",1,7,0,0,"AI","training_others",7,3,"GoldenRod","f","accept",3,1338
"842","id0041",1,8,0,0,"AI","training_others",8,2,"GoldenRod","j","reject",0,857
"843","id0041",1,9,0,0,"AI","training_others",6,4,"GoldenRod","f","accept",4,14
"844","id0041",1,10,0,0,"human","training_others",6,4,"DarkOrchid","f","accept",4,535
"845","id0041",1,11,0,0,"human","training_others",7,3,"DarkOrchid","f","accept",3,2329
"846","id0041",1,12,0,0,"human","training_others",9,1,"DarkOrchid","j","reject",0,372
"847","id0041",1,13,0,0,"AI","training_others",5,5,"GoldenRod","f","accept",5,764
"848","id0041",1,14,0,0,"human","training_others",6,4,"DarkOrchid","f","accept",4,429
"849","id0041",1,15,0,0,"AI","training_others",9,1,"GoldenRod","j","reject",0,475
"850","id0041",1,16,0,0,"AI","training_others",5,5,"GoldenRod","f","accept",5,683
"851","id0041",1,17,0,0,"AI","training_others",8,2,"GoldenRod","j","reject",0,1387
"852","id0041",1,18,0,0,"human","training_others",5,5,"DarkOrchid","f","accept",5,700
"853","id0041",1,19,0,0,"AI","training_others",7,3,"GoldenRod","f","accept",3,2355
"854","id0041",1,20,0,0,"AI","training_others",5,5,"GoldenRod","f","accept",5,746
"855","id0041",1,21,0,0,"AI","training_others",9,1,"GoldenRod","j","reject",0,900
"856","id0041",1,22,0,0,"human","training_others",4,6,"DarkOrchid","f","accept",6,739
"857","id0041",1,23,0,0,"human","training_others",5,5,"DarkOrchid","f","accept",5,1078
"858","id0041",1,24,0,0,"AI","training_others",4,6,"GoldenRod","f","accept",6,684
"859","id0042",0,1,1,0,"practice","Practice",7,3,"black","f","accept",3,762
"860","id0042",0,2,1,0,"practice","Practice",7,3,"black","f","accept",3,627
"861","id0042",1,1,0,0,"AI","control",4,6,"DarkOrchid","f","accept",6,531
"862","id0042",1,2,0,0,"human","control",5,5,"GoldenRod","f","accept",5,398
"863","id0042",1,3,0,1,"AI","control",5,5,"DarkOrchid","f","accept",5,392
"864","id0042",1,4,0,0,"human","control",6,4,"GoldenRod","f","accept",4,366
"865","id0042",1,5,0,0,"human","control",4,6,"GoldenRod","f","accept",6,619
"866","id0042",1,6,0,0,"AI","control",8,2,"DarkOrchid","j","reject",0,2312
"867","id0042",1,7,0,0,"AI","control",9,1,"DarkOrchid","j","reject",0,691
"868","id0042",1,8,0,0,"human","control",5,5,"GoldenRod","f","accept",5,462
"869","id0042",1,9,0,0,"human","control",4,6,"GoldenRod","f","accept",6,882
"870","id0042",1,10,0,0,"AI","control",6,4,"DarkOrchid","f","accept",4,672
"871","id0042",1,11,0,0,"AI","control",5,5,"DarkOrchid","f","accept",5,1066
"872","id0042",1,12,0,0,"AI","control",6,4,"DarkOrchid","f","accept",4,1364
"873","id0042",1,13,0,0,"human","control",7,3,"GoldenRod","f","accept",3,792
"874","id0042",1,14,0,0,"human","control",7,3,"GoldenRod","f","accept",3,646
"875","id0042",1,15,0,0,"human","control",9,1,"GoldenRod","j","reject",0,1663
"876","id0042",1,16,0,0,"AI","control",9,1,"DarkOrchid","j","reject",0,631
"877","id0042",1,17,0,0,"human","control",8,2,"GoldenRod","f","accept",2,776
"878","id0042",1,18,0,0,"human","control",6,4,"GoldenRod","f","accept",4,718
"879","id0042",1,19,0,0,"AI","control",7,3,"DarkOrchid","f","accept",3,619
"880","id0042",1,20,0,0,"AI","control",4,6,"DarkOrchid","f","accept",6,1109
"881","id0042",1,21,0,0,"AI","control",6,4,"DarkOrchid","f","accept",4,767
"882","id0042",1,22,0,0,"human","control",8,2,"GoldenRod","f","accept",2,458
"883","id0042",1,23,0,0,"AI","control",6,4,"DarkOrchid","f","accept",4,614
"884","id0042",1,24,0,0,"human","control",9,1,"GoldenRod","j","reject",0,414
"885","id0043",0,1,1,0,"practice","Practice",8,2,"black","j","reject",0,716
"886","id0043",0,2,1,0,"practice","Practice",8,2,"black","j","reject",0,2568
"887","id0043",1,1,0,0,"AI","control",4,6,"DarkOrchid","f","accept",6,261
"888","id0043",1,2,0,1,"AI","control",7,3,"DarkOrchid","j","reject",0,1771
"889","id0043",1,3,0,0,"AI","control",8,2,"DarkOrchid","j","reject",0,346
"890","id0043",1,4,0,0,"AI","control",6,4,"DarkOrchid","f","accept",4,571
"891","id0043",1,5,0,0,"AI","control",9,1,"DarkOrchid","j","reject",0,950
"892","id0043",1,6,0,0,"AI","control",6,4,"DarkOrchid","f","accept",4,1385
"893","id0043",1,7,0,0,"AI","control",7,3,"DarkOrchid","f","accept",3,627
"894","id0043",1,8,0,0,"human","control",5,5,"GoldenRod","f","accept",5,86
"895","id0043",1,9,0,0,"human","control",8,2,"GoldenRod","j","reject",0,741
"896","id0043",1,10,0,0,"human","control",9,1,"GoldenRod","j","reject",0,710
"897","id0043",1,11,0,0,"human","control",4,6,"GoldenRod","f","accept",6,852
"898","id0043",1,12,0,0,"human","control",4,6,"GoldenRod","f","accept",6,34
"899","id0043",1,13,0,0,"AI","control",5,5,"DarkOrchid","f","accept",5,647
"900","id0043",1,14,0,0,"AI","control",5,5,"DarkOrchid","f","accept",5,32
"901","id0043",1,15,0,0,"human","control",7,3,"GoldenRod","j","reject",0,701
"902","id0043",1,16,0,0,"human","control",6,4,"GoldenRod","f","accept",4,620
"903","id0043",1,17,0,0,"human","control",7,3,"GoldenRod","j","reject",0,597
"904","id0043",1,18,0,0,"AI","control",4,6,"DarkOrchid","f","accept",6,537
"905","id0043",1,19,0,0,"human","control",8,2,"GoldenRod","j","reject",0,47
"906","id0043",1,20,0,0,"human","control",9,1,"GoldenRod","j","reject",0,161
"907","id0043",1,21,0,0,"AI","control",6,4,"DarkOrchid","f","accept",4,557
"908","id0043",1,22,0,0,"human","control",6,4,"GoldenRod","f","accept",4,607
"909","id0043",1,23,0,0,"AI","control",5,5,"DarkOrchid","f","accept",5,274
"910","id0043",1,24,0,0,"human","control",5,5,"GoldenRod","f","accept",5,543
"911","id0045",0,1,1,0,"practice","Practice",7,3,"black","j","reject",0,2787
"912","id0045",0,2,1,0,"practice","Practice",7,3,"black","j","reject",0,916
"913","id0045",1,1,0,0,"AI","training_self",7,3,"GoldenRod","f","accept",3,382
"914","id0045",1,2,0,0,"human","training_self",6,4,"DarkOrchid","j","reject",0,795
"915","id0045",1,3,0,0,"AI","training_self",5,5,"GoldenRod","f","accept",5,388
"916","id0045",1,4,0,0,"AI","training_self",5,5,"GoldenRod","f","accept",5,1273
"917","id0045",1,5,0,0,"human","training_self",5,5,"DarkOrchid","f","accept",5,563
"918","id0045",1,6,0,0,"AI","training_self",9,1,"GoldenRod","f","accept",1,441
"919","id0045",1,7,0,1,"AI","training_self",6,4,"GoldenRod","f","accept",4,564
"920","id0045",1,8,0,0,"AI","training_self",8,2,"GoldenRod","f","accept",2,418
"921","id0045",1,9,0,0,"human","training_self",7,3,"DarkOrchid","j","reject",0,475
"922","id0045",1,10,0,0,"human","training_self",9,1,"DarkOrchid","j","reject",0,442
"923","id0045",1,11,0,0,"AI","training_self",6,4,"GoldenRod","f","accept",4,623
"924","id0045",1,12,0,0,"human","training_self",7,3,"DarkOrchid","j","reject",0,1709
"925","id0045",1,13,0,0,"human","training_self",4,6,"DarkOrchid","f","accept",6,623
"926","id0045",1,14,0,0,"human","training_self",9,1,"DarkOrchid","j","reject",0,779
"927","id0045",1,15,0,0,"AI","training_self",6,4,"GoldenRod","f","accept",4,389
"928","id0045",1,16,0,0,"AI","training_self",9,1,"GoldenRod","f","accept",1,571
"929","id0045",1,17,0,0,"AI","training_self",4,6,"GoldenRod","f","accept",6,435
"930","id0045",1,18,0,0,"human","training_self",8,2,"DarkOrchid","j","reject",0,570
"931","id0045",1,19,0,0,"human","training_self",6,4,"DarkOrchid","j","reject",0,682
"932","id0045",1,20,0,0,"AI","training_self",4,6,"GoldenRod","f","accept",6,614
"933","id0045",1,21,0,0,"human","training_self",5,5,"DarkOrchid","f","accept",5,414
"934","id0045",1,22,0,0,"AI","training_self",6,4,"GoldenRod","f","accept",4,485
"935","id0045",1,23,0,0,"human","training_self",8,2,"DarkOrchid","j","reject",0,406
"936","id0045",1,24,0,0,"human","training_self",4,6,"DarkOrchid","f","accept",6,366
"937","id0046",0,1,1,0,"practice","Practice",1,9,"black","j","reject",0,489
"938","id0046",0,2,1,0,"practice","Practice",8,2,"black","f","accept",2,355
"939","id0046",1,1,0,0,"human","training_self",5,5,"DarkOrchid","f","accept",5,402
"940","id0046",1,2,0,0,"human","training_self",5,5,"DarkOrchid","f","accept",5,297
"941","id0046",1,3,0,0,"AI","training_self",9,1,"GoldenRod","j","reject",0,378
"942","id0046",1,4,0,0,"AI","training_self",7,3,"GoldenRod","j","reject",0,714
"943","id0046",1,5,0,1,"AI","training_self",5,5,"GoldenRod","f","accept",5,290
"944","id0046",1,6,0,0,"human","training_self",6,4,"DarkOrchid","f","accept",4,363
"945","id0046",1,7,0,0,"human","training_self",4,6,"DarkOrchid","f","accept",6,336
"946","id0046",1,8,0,0,"AI","training_self",8,2,"GoldenRod","j","reject",0,312
"947","id0046",1,9,0,0,"human","training_self",4,6,"DarkOrchid","f","accept",6,337
"948","id0046",1,10,0,0,"human","training_self",6,4,"DarkOrchid","f","accept",4,321
"949","id0046",1,11,0,0,"AI","training_self",6,4,"GoldenRod","f","accept",4,315
"950","id0046",1,12,0,0,"AI","training_self",5,5,"GoldenRod","f","accept",5,275
"951","id0046",1,13,0,0,"human","training_self",9,1,"DarkOrchid","j","reject",0,245
"952","id0046",1,14,0,0,"AI","training_self",7,3,"GoldenRod","j","reject",0,1842
"953","id0046",1,15,0,0,"AI","training_self",6,4,"GoldenRod","f","accept",4,411
"954","id0046",1,16,0,0,"AI","training_self",4,6,"GoldenRod","f","accept",6,439
"955","id0046",1,17,0,0,"human","training_self",7,3,"DarkOrchid","j","reject",0,315
"956","id0046",1,18,0,0,"AI","training_self",4,6,"GoldenRod","f","accept",6,312
"957","id0046",1,19,0,0,"AI","training_self",5,5,"GoldenRod","f","accept",5,329
"958","id0046",1,20,0,0,"AI","training_self",4,6,"GoldenRod","f","accept",6,260
"959","id0046",1,21,0,0,"human","training_self",8,2,"DarkOrchid","j","reject",0,298
"960","id0046",1,22,0,0,"human","training_self",9,1,"DarkOrchid","j","reject",0,352
"961","id0046",1,23,0,0,"human","training_self",8,2,"DarkOrchid","j","reject",0,331
"962","id0046",1,24,0,0,"human","training_self",7,3,"DarkOrchid","j","reject",0,337
"963","id0048",0,1,1,0,"practice","Practice",7,3,"black","j","reject",0,1577
"964","id0048",0,2,1,0,"practice","Practice",5,5,"black","f","accept",5,298
"965","id0048",1,1,0,0,"AI","training_self",6,4,"DarkOrchid","f","accept",4,1031
"966","id0048",1,2,0,0,"AI","training_self",4,6,"DarkOrchid","f","accept",6,383
"967","id0048",1,3,0,0,"human","training_self",9,1,"GoldenRod","j","reject",0,349
"968","id0048",1,4,0,0,"AI","training_self",7,3,"DarkOrchid","j","reject",0,760
"969","id0048",1,5,0,1,"AI","training_self",4,6,"DarkOrchid","f","accept",6,292
"970","id0048",1,6,0,0,"human","training_self",5,5,"GoldenRod","f","accept",5,304
"971","id0048",1,7,0,0,"human","training_self",5,5,"GoldenRod","f","accept",5,384
"972","id0048",1,8,0,0,"human","training_self",8,2,"GoldenRod","j","reject",0,430
"973","id0048",1,9,0,0,"human","training_self",6,4,"GoldenRod","f","accept",4,477
"974","id0048",1,10,0,0,"human","training_self",7,3,"GoldenRod","j","reject",0,318
"975","id0048",1,11,0,0,"AI","training_self",5,5,"DarkOrchid","f","accept",5,334
"976","id0048",1,12,0,0,"AI","training_self",9,1,"DarkOrchid","j","reject",0,522
"977","id0048",1,13,0,0,"AI","training_self",8,2,"DarkOrchid","j","reject",0,578
"978","id0048",1,14,0,0,"AI","training_self",4,6,"DarkOrchid","f","accept",6,364
"979","id0048",1,15,0,0,"human","training_self",9,1,"GoldenRod","j","reject",0,419
"980","id0048",1,16,0,0,"AI","training_self",4,6,"DarkOrchid","f","accept",6,368
"981","id0048",1,17,0,0,"human","training_self",4,6,"GoldenRod","f","accept",6,320
"982","id0048",1,18,0,0,"human","training_self",4,6,"GoldenRod","f","accept",6,247
"983","id0048",1,19,0,0,"AI","training_self",4,6,"DarkOrchid","f","accept",6,508
"984","id0048",1,20,0,0,"human","training_self",6,4,"GoldenRod","f","accept",4,328
"985","id0048",1,21,0,0,"human","training_self",7,3,"GoldenRod","j","reject",0,568
"986","id0048",1,22,0,0,"human","training_self",8,2,"GoldenRod","j","reject",0,504
"987","id0048",1,23,0,0,"AI","training_self",5,5,"DarkOrchid","f","accept",5,483
"988","id0048",1,24,0,0,"AI","training_self",6,4,"DarkOrchid","f","accept",4,604
"989","id0050",0,1,1,0,"practice","Practice",6,4,"black","f","accept",4,254
"990","id0050",0,2,1,0,"practice","Practice",10,0,"black","j","reject",0,172
"991","id0050",1,1,0,0,"human","training_others",8,2,"GoldenRod","f","accept",2,184
"992","id0050",1,2,0,0,"human","training_others",4,6,"GoldenRod","f","accept",6,139
"993","id0050",1,3,0,0,"AI","training_others",4,6,"DarkOrchid","f","accept",6,78
"994","id0050",1,4,0,0,"AI","training_others",6,4,"DarkOrchid","f","accept",4,273
"995","id0050",1,5,0,1,"human","training_others",9,1,"GoldenRod","f","accept",1,75
"996","id0050",1,6,0,0,"human","training_others",9,1,"GoldenRod","f","accept",1,198
"997","id0050",1,7,0,0,"AI","training_others",9,1,"DarkOrchid","f","accept",1,717
"998","id0050",1,8,0,0,"human","training_others",7,3,"GoldenRod","f","accept",3,439
"999","id0050",1,9,0,0,"AI","training_others",5,5,"DarkOrchid","f","accept",5,197
"1000","id0050",1,10,0,0,"human","training_others",7,3,"GoldenRod","f","accept",3,271
"1001","id0050",1,11,0,0,"AI","training_others",6,4,"DarkOrchid","f","accept",4,203
"1002","id0050",1,12,0,0,"AI","training_others",8,2,"DarkOrchid","f","accept",2,367
"1003","id0050",1,13,0,0,"AI","training_others",7,3,"DarkOrchid","f","accept",3,281
"1004","id0050",1,14,0,0,"human","training_others",8,2,"GoldenRod","f","accept",2,46
"1005","id0050",1,15,0,0,"human","training_others",6,4,"GoldenRod","f","accept",4,1464
"1006","id0050",1,16,0,0,"human","training_others",6,4,"GoldenRod","f","accept",4,376
"1007","id0050",1,17,0,0,"human","training_others",5,5,"GoldenRod","f","accept",5,347
"1008","id0050",1,18,0,0,"AI","training_others",7,3,"DarkOrchid","f","accept",3,250
"1009","id0050",1,19,0,0,"AI","training_others",5,5,"DarkOrchid","f","accept",5,180
"1010","id0050",1,20,0,0,"AI","training_others",6,4,"DarkOrchid","f","accept",4,161
"1011","id0050",1,21,0,0,"AI","training_others",6,4,"DarkOrchid","f","accept",4,63
"1012","id0050",1,22,0,0,"human","training_others",5,5,"GoldenRod","f","accept",5,314
"1013","id0050",1,23,0,0,"human","training_others",4,6,"GoldenRod","f","accept",6,159
"1014","id0050",1,24,0,0,"AI","training_others",6,4,"DarkOrchid","f","accept",4,213
"1015","id0051",0,1,1,0,"practice","Practice",10,0,"black","j","reject",0,934
"1016","id0051",0,2,1,0,"practice","Practice",8,2,"black","j","reject",0,735
"1017","id0051",1,1,0,0,"human","training_self",9,1,"DarkOrchid","j","reject",0,478
"1018","id0051",1,2,0,0,"human","training_self",8,2,"DarkOrchid","j","reject",0,742
"1019","id0051",1,3,0,0,"AI","training_self",7,3,"GoldenRod","f","accept",3,1597
"1020","id0051",1,4,0,0,"human","training_self",4,6,"DarkOrchid","f","accept",6,564
"1021","id0051",1,5,0,0,"human","training_self",5,5,"DarkOrchid","f","accept",5,474
"1022","id0051",1,6,0,0,"AI","training_self",5,5,"GoldenRod","f","accept",5,420
"1023","id0051",1,7,0,0,"AI","training_self",8,2,"GoldenRod","j","reject",0,419
"1024","id0051",1,8,0,0,"human","training_self",6,4,"DarkOrchid","f","accept",4,360
"1025","id0051",1,9,0,0,"human","training_self",7,3,"DarkOrchid","j","reject",0,697
"1026","id0051",1,10,0,0,"human","training_self",8,2,"DarkOrchid","j","reject",0,313
"1027","id0051",1,11,0,0,"AI","training_self",4,6,"GoldenRod","f","accept",6,39
"1028","id0051",1,12,0,0,"AI","training_self",4,6,"GoldenRod","f","accept",6,249
"1029","id0051",1,13,0,0,"AI","training_self",9,1,"GoldenRod","j","reject",0,196
"1030","id0051",1,14,0,0,"AI","training_self",7,3,"GoldenRod","j","reject",0,1173
"1031","id0051",1,15,0,0,"AI","training_self",6,4,"GoldenRod","f","accept",4,378
"1032","id0051",1,16,0,0,"human","training_self",9,1,"DarkOrchid","j","reject",0,331
"1033","id0051",1,17,0,0,"human","training_self",4,6,"DarkOrchid","f","accept",6,432
"1034","id0051",1,18,0,0,"AI","training_self",4,6,"GoldenRod","f","accept",6,282
"1035","id0051",1,19,0,0,"human","training_self",7,3,"DarkOrchid","f","accept",3,977
"1036","id0051",1,20,0,1,"human","training_self",6,4,"DarkOrchid","f","accept",4,413
"1037","id0051",1,21,0,0,"human","training_self",5,5,"DarkOrchid","f","accept",5,381
"1038","id0051",1,22,0,0,"AI","training_self",5,5,"GoldenRod","f","accept",5,416
"1039","id0051",1,23,0,0,"AI","training_self",5,5,"GoldenRod","f","accept",5,581
"1040","id0051",1,24,0,0,"AI","training_self",6,4,"GoldenRod","f","accept",4,485
"1041","id0052",0,1,1,0,"practice","Practice",7,3,"black","f","accept",3,875
"1042","id0052",0,2,1,0,"practice","Practice",2,8,"black","f","accept",8,332
"1043","id0052",1,1,0,0,"human","training_self",6,4,"DarkOrchid","f","accept",4,491
"1044","id0052",1,2,0,0,"human","training_self",8,2,"DarkOrchid","j","reject",0,259
"1045","id0052",1,3,0,0,"AI","training_self",7,3,"GoldenRod","j","reject",0,224
"1046","id0052",1,4,0,0,"AI","training_self",4,6,"GoldenRod","f","accept",6,273
"1047","id0052",1,5,0,0,"human","training_self",4,6,"DarkOrchid","f","accept",6,327
"1048","id0052",1,6,0,0,"human","training_self",7,3,"DarkOrchid","j","reject",0,357
"1049","id0052",1,7,0,0,"AI","training_self",9,1,"GoldenRod","j","reject",0,330
"1050","id0052",1,8,0,0,"human","training_self",4,6,"DarkOrchid","f","accept",6,306
"1051","id0052",1,9,0,0,"AI","training_self",8,2,"GoldenRod","j","reject",0,298
"1052","id0052",1,10,0,0,"human","training_self",8,2,"DarkOrchid","j","reject",0,0
"1053","id0052",1,11,0,0,"human","training_self",6,4,"DarkOrchid","f","accept",4,123
"1054","id0052",1,12,0,0,"AI","training_self",9,1,"GoldenRod","j","reject",0,374
"1055","id0052",1,13,0,0,"human","training_self",5,5,"DarkOrchid","f","accept",5,312
"1056","id0052",1,14,0,0,"human","training_self",9,1,"DarkOrchid","j","reject",0,307
"1057","id0052",1,15,0,0,"AI","training_self",5,5,"GoldenRod","f","accept",5,321
"1058","id0052",1,16,0,0,"AI","training_self",6,4,"GoldenRod","j","reject",0,359
"1059","id0052",1,17,0,0,"human","training_self",9,1,"DarkOrchid","j","reject",0,328
"1060","id0052",1,18,0,0,"human","training_self",5,5,"DarkOrchid","f","accept",5,325
"1061","id0052",1,19,0,0,"AI","training_self",4,6,"GoldenRod","f","accept",6,428
"1062","id0052",1,20,0,1,"AI","training_self",8,2,"GoldenRod","j","reject",0,479
"1063","id0052",1,21,0,0,"AI","training_self",6,4,"GoldenRod","j","reject",0,390
"1064","id0052",1,22,0,0,"AI","training_self",4,6,"GoldenRod","f","accept",6,422
"1065","id0052",1,23,0,0,"AI","training_self",4,6,"GoldenRod","f","accept",6,394
"1066","id0052",1,24,0,0,"human","training_self",7,3,"DarkOrchid","j","reject",0,338
"1067","id0053",0,1,1,0,"practice","Practice",3,7,"black","f","accept",7,516
"1068","id0053",0,2,1,0,"practice","Practice",5,5,"black","f","accept",5,318
"1069","id0053",1,1,0,0,"human","training_others",7,3,"GoldenRod","f","accept",3,2117
"1070","id0053",1,2,0,0,"human","training_others",4,6,"GoldenRod","f","accept",6,344
"1071","id0053",1,3,0,0,"AI","training_others",5,5,"DarkOrchid","f","accept",5,390
"1072","id0053",1,4,0,0,"AI","training_others",6,4,"DarkOrchid","f","accept",4,334
"1073","id0053",1,5,0,1,"human","training_others",9,1,"GoldenRod","f","accept",1,319
"1074","id0053",1,6,0,0,"human","training_others",8,2,"GoldenRod","f","accept",2,389
"1075","id0053",1,7,0,0,"human","training_others",9,1,"GoldenRod","f","accept",1,427
"1076","id0053",1,8,0,0,"human","training_others",6,4,"GoldenRod","f","accept",4,411
"1077","id0053",1,9,0,0,"human","training_others",6,4,"GoldenRod","f","accept",4,447
"1078","id0053",1,10,0,0,"AI","training_others",4,6,"DarkOrchid","f","accept",6,431
"1079","id0053",1,11,0,0,"AI","training_others",4,6,"DarkOrchid","f","accept",6,408
"1080","id0053",1,12,0,0,"human","training_others",5,5,"GoldenRod","f","accept",5,586
"1081","id0053",1,13,0,0,"AI","training_others",9,1,"DarkOrchid","f","accept",1,293
"1082","id0053",1,14,0,0,"human","training_others",4,6,"GoldenRod","f","accept",6,354
"1083","id0053",1,15,0,0,"human","training_others",5,5,"GoldenRod","f","accept",5,341
"1084","id0053",1,16,0,0,"AI","training_others",8,2,"DarkOrchid","f","accept",2,393
"1085","id0053",1,17,0,0,"human","training_others",7,3,"GoldenRod","f","accept",3,507
"1086","id0053",1,18,0,0,"AI","training_others",7,3,"DarkOrchid","f","accept",3,391
"1087","id0053",1,19,0,0,"human","training_others",8,2,"GoldenRod","f","accept",2,417
"1088","id0053",1,20,0,0,"AI","training_others",4,6,"DarkOrchid","f","accept",6,397
"1089","id0053",1,21,0,0,"AI","training_others",5,5,"DarkOrchid","f","accept",5,414
"1090","id0053",1,22,0,0,"AI","training_others",4,6,"DarkOrchid","f","accept",6,2539
"1091","id0053",1,23,0,0,"AI","training_others",5,5,"DarkOrchid","f","accept",5,412
"1092","id0053",1,24,0,0,"AI","training_others",4,6,"DarkOrchid","f","accept",6,420
"1093","id0054",0,1,1,0,"practice","Practice",1,9,"black","f","accept",9,1027
"1094","id0054",0,2,1,0,"practice","Practice",7,3,"black","f","accept",3,465
"1095","id0054",1,1,0,1,"AI","control",4,6,"GoldenRod","f","accept",6,427
"1096","id0054",1,2,0,0,"AI","control",9,1,"GoldenRod","f","accept",1,356
"1097","id0054",1,3,0,0,"human","control",6,4,"DarkOrchid","f","accept",4,434
"1098","id0054",1,4,0,0,"human","control",5,5,"DarkOrchid","f","accept",5,371
"1099","id0054",1,5,0,0,"AI","control",6,4,"GoldenRod","f","accept",4,444
"1100","id0054",1,6,0,0,"AI","control",5,5,"GoldenRod","f","accept",5,588
"1101","id0054",1,7,0,0,"AI","control",4,6,"GoldenRod","f","accept",6,582
"1102","id0054",1,8,0,0,"human","control",6,4,"DarkOrchid","f","accept",4,388
"1103","id0054",1,9,0,0,"human","control",4,6,"DarkOrchid","f","accept",6,1011
"1104","id0054",1,10,0,0,"human","control",5,5,"DarkOrchid","f","accept",5,1676
"1105","id0054",1,11,0,0,"human","control",4,6,"DarkOrchid","f","accept",6,3758
"1106","id0054",1,12,0,0,"AI","control",6,4,"GoldenRod","f","accept",4,829
"1107","id0054",1,13,0,0,"human","control",8,2,"DarkOrchid","f","accept",2,2971
"1108","id0054",1,14,0,0,"human","control",7,3,"DarkOrchid","f","accept",3,389
"1109","id0054",1,15,0,0,"AI","control",7,3,"GoldenRod","f","accept",3,598
"1110","id0054",1,16,0,0,"human","control",8,2,"DarkOrchid","f","accept",2,428
"1111","id0054",1,17,0,0,"AI","control",8,2,"GoldenRod","f","accept",2,518
"1112","id0054",1,18,0,0,"AI","control",5,5,"GoldenRod","f","accept",5,514
"1113","id0054",1,19,0,0,"human","control",7,3,"DarkOrchid","f","accept",3,1079
"1114","id0054",1,20,0,0,"AI","control",4,6,"GoldenRod","f","accept",6,597
"1115","id0054",1,21,0,0,"AI","control",6,4,"GoldenRod","f","accept",4,2659
"1116","id0054",1,22,0,0,"human","control",9,1,"DarkOrchid","f","accept",1,2212
"1117","id0054",1,23,0,0,"AI","control",6,4,"GoldenRod","f","accept",4,602
"1118","id0054",1,24,0,0,"human","control",9,1,"DarkOrchid","f","accept",1,593
"1119","id0054",0,2,1,0,"practice","Practice",7,3,"black","f","accept",3,21374
"1120","id0054",1,1,0,0,"human","control",7,3,"GoldenRod","f","accept",3,2215
"1121","id0054",1,2,0,0,"human","control",9,1,"GoldenRod","f","accept",1,1088
"1122","id0054",1,3,0,0,"AI","control",8,2,"DarkOrchid","f","accept",2,656
"1123","id0054",1,4,0,0,"human","control",4,6,"GoldenRod","f","accept",6,517
"1124","id0054",1,5,0,0,"AI","control",7,3,"DarkOrchid","f","accept",3,521
"1125","id0054",1,6,0,0,"AI","control",7,3,"DarkOrchid","f","accept",3,556
"1126","id0054",1,7,0,0,"AI","control",6,4,"DarkOrchid","f","accept",4,505
"1127","id0054",1,8,0,0,"human","control",4,6,"GoldenRod","f","accept",6,552
"1128","id0054",1,9,0,0,"AI","control",5,5,"DarkOrchid","f","accept",5,561
"1129","id0054",1,10,0,0,"AI","control",4,6,"DarkOrchid","f","accept",6,486
"1130","id0054",1,11,0,0,"AI","control",9,1,"DarkOrchid","f","accept",1,1584
"1131","id0054",0,1,1,0,"practice","Practice",1,9,"black","f","accept",9,6179
"1132","id0054",1,13,0,0,"AI","control",5,5,"DarkOrchid","f","accept",5,559
"1133","id0054",1,14,0,0,"human","control",9,1,"GoldenRod","f","accept",1,478
"1134","id0054",1,15,0,1,"human","control",6,4,"GoldenRod","f","accept",4,426
"1135","id0054",1,16,0,0,"human","control",6,4,"GoldenRod","f","accept",4,543
"1136","id0054",1,17,0,0,"AI","control",4,6,"DarkOrchid","f","accept",6,441
"1137","id0054",1,18,0,0,"human","control",8,2,"GoldenRod","f","accept",2,365
"1138","id0054",1,19,0,0,"AI","control",5,5,"DarkOrchid","f","accept",5,484
"1139","id0054",1,20,0,0,"human","control",5,5,"GoldenRod","f","accept",5,433
"1140","id0054",1,21,0,0,"human","control",8,2,"GoldenRod","f","accept",2,487
"1141","id0054",1,22,0,0,"AI","control",6,4,"DarkOrchid","f","accept",4,576
"1142","id0054",1,23,0,0,"AI","control",4,6,"DarkOrchid","f","accept",6,724
"1143","id0054",1,24,0,0,"human","control",7,3,"GoldenRod","f","accept",3,586
"1144","id0054",1,12,0,0,"human","control",5,5,"GoldenRod","f","accept",5,737
"1145","id0055",0,1,1,0,"practice","Practice",5,5,"black","f","accept",5,2269
"1146","id0055",0,2,1,0,"practice","Practice",5,5,"black","f","accept",5,718
"1147","id0055",1,1,0,0,"human","training_self",4,6,"DarkOrchid","f","accept",6,563
"1148","id0055",1,2,0,0,"human","training_self",8,2,"DarkOrchid","f","accept",2,577
"1149","id0055",1,3,0,0,"AI","training_self",7,3,"GoldenRod","j","reject",0,2320
"1150","id0055",1,4,0,0,"human","training_self",8,2,"DarkOrchid","j","reject",0,552
"1151","id0055",1,5,0,0,"human","training_self",5,5,"DarkOrchid","f","accept",5,312
"1152","id0055",1,6,0,0,"human","training_self",9,1,"DarkOrchid","j","reject",0,1298
"1153","id0055",1,7,0,0,"human","training_self",7,3,"DarkOrchid","j","reject",0,906
"1154","id0055",1,8,0,0,"human","training_self",6,4,"DarkOrchid","f","accept",4,3387
"1155","id0055",1,9,0,0,"AI","training_self",4,6,"GoldenRod","f","accept",6,722
"1156","id0055",1,10,0,0,"human","training_self",7,3,"DarkOrchid","j","reject",0,2563
"1157","id0055",1,11,0,0,"AI","training_self",9,1,"GoldenRod","j","reject",0,1316
"1158","id0055",1,12,0,0,"human","training_self",4,6,"DarkOrchid","f","accept",6,1089
"1159","id0055",1,13,0,0,"human","training_self",5,5,"DarkOrchid","f","accept",5,780
"1160","id0055",1,14,0,0,"AI","training_self",6,4,"GoldenRod","f","accept",4,643
"1161","id0055",1,15,0,0,"AI","training_self",6,4,"GoldenRod","f","accept",4,788
"1162","id0055",1,16,0,1,"AI","training_self",6,4,"GoldenRod","f","accept",4,659
"1163","id0055",1,17,0,0,"AI","training_self",5,5,"GoldenRod","f","accept",5,466
"1164","id0055",1,18,0,0,"AI","training_self",4,6,"GoldenRod","f","accept",6,386
"1165","id0055",1,19,0,0,"human","training_self",9,1,"DarkOrchid","j","reject",0,404
"1166","id0055",1,20,0,0,"AI","training_self",8,2,"GoldenRod","j","reject",0,322
"1167","id0055",1,21,0,0,"AI","training_self",6,4,"GoldenRod","f","accept",4,324
"1168","id0055",1,22,0,0,"AI","training_self",7,3,"GoldenRod","j","reject",0,979
"1169","id0055",1,23,0,0,"human","training_self",6,4,"DarkOrchid","f","accept",4,844
"1170","id0055",1,24,0,0,"AI","training_self",8,2,"GoldenRod","j","reject",0,531
"1171","id0057",0,1,1,0,"practice","Practice",6,4,"black","f","accept",4,877
"1172","id0057",0,2,1,0,"practice","Practice",5,5,"black","f","accept",5,386
"1173","id0057",1,1,0,0,"AI","training_self",5,5,"DarkOrchid","f","accept",5,408
"1174","id0057",1,2,0,0,"human","training_self",7,3,"GoldenRod","j","reject",0,395
"1175","id0057",1,3,0,0,"AI","training_self",4,6,"DarkOrchid","f","accept",6,2011
"1176","id0057",1,4,0,0,"human","training_self",8,2,"GoldenRod","j","reject",0,469
"1177","id0057",1,5,0,0,"human","training_self",9,1,"GoldenRod","j","reject",0,392
"1178","id0057",1,6,0,0,"AI","training_self",8,2,"DarkOrchid","j","reject",0,411
"1179","id0057",1,7,0,0,"human","training_self",9,1,"GoldenRod","j","reject",0,392
"1180","id0057",1,8,0,0,"AI","training_self",7,3,"DarkOrchid","j","reject",0,491
"1181","id0057",1,9,0,0,"human","training_self",7,3,"GoldenRod","j","reject",0,411
"1182","id0057",1,10,0,0,"AI","training_self",6,4,"DarkOrchid","f","accept",4,511
"1183","id0057",1,11,0,1,"AI","training_self",7,3,"DarkOrchid","j","reject",0,762
"1184","id0057",1,12,0,0,"human","training_self",5,5,"GoldenRod","f","accept",5,473
"1185","id0057",1,13,0,0,"AI","training_self",9,1,"DarkOrchid","j","reject",0,430
"1186","id0057",1,14,0,0,"human","training_self",8,2,"GoldenRod","j","reject",0,459
"1187","id0057",1,15,0,0,"human","training_self",4,6,"GoldenRod","f","accept",6,642
"1188","id0057",1,16,0,0,"human","training_self",6,4,"GoldenRod","f","accept",4,582
"1189","id0057",1,17,0,0,"AI","training_self",4,6,"DarkOrchid","f","accept",6,419
"1190","id0057",1,18,0,0,"AI","training_self",7,3,"DarkOrchid","j","reject",0,410
"1191","id0057",1,19,0,0,"AI","training_self",6,4,"DarkOrchid","f","accept",4,383
"1192","id0057",1,20,0,0,"human","training_self",6,4,"GoldenRod","f","accept",4,458
"1193","id0057",1,21,0,0,"human","training_self",5,5,"GoldenRod","f","accept",5,333
"1194","id0057",1,22,0,0,"AI","training_self",6,4,"DarkOrchid","f","accept",4,787
"1195","id0057",1,23,0,0,"AI","training_self",7,3,"DarkOrchid","j","reject",0,590
"1196","id0057",1,24,0,0,"human","training_self",4,6,"GoldenRod","f","accept",6,476
"1197","id0058",0,1,1,0,"practice","Practice",4,6,"black","f","accept",6,4651
"1198","id0058",0,2,1,0,"practice","Practice",7,3,"black","f","accept",3,4686
"1199","id0058",1,1,0,0,"AI","training_others",9,1,"DarkOrchid","f","accept",1,7375
"1200","id0058",1,2,0,0,"AI","training_others",4,6,"DarkOrchid","f","accept",6,541
"1201","id0058",1,3,0,0,"AI","training_others",8,2,"DarkOrchid","f","accept",2,722
"1202","id0058",1,4,0,0,"human","training_others",7,3,"GoldenRod","f","accept",3,997
"1203","id0058",1,5,0,0,"human","training_others",4,6,"GoldenRod","f","accept",6,2711
"1204","id0058",1,6,0,0,"human","training_others",5,5,"GoldenRod","f","accept",5,484
"1205","id0058",1,7,0,0,"human","training_others",6,4,"GoldenRod","f","accept",4,612
"1206","id0058",1,8,0,0,"human","training_others",6,4,"GoldenRod","f","accept",4,917
"1207","id0058",1,9,0,0,"human","training_others",8,2,"GoldenRod","f","accept",2,673
"1208","id0058",1,10,0,0,"AI","training_others",4,6,"DarkOrchid","f","accept",6,10327
"1209","id0058",1,23,0,0,"human","training_others",9,1,"GoldenRod","f","accept",1,4030
"1210","id0058",1,11,0,0,"AI","training_others",5,5,"DarkOrchid","f","accept",5,569
"1211","id0058",1,12,0,1,"human","training_others",8,2,"GoldenRod","f","accept",2,875
"1212","id0058",1,13,0,0,"AI","training_others",7,3,"DarkOrchid","f","accept",3,583
"1213","id0058",1,14,0,0,"human","training_others",7,3,"GoldenRod","f","accept",3,476
"1214","id0058",1,15,0,0,"human","training_others",4,6,"GoldenRod","f","accept",6,372
"1215","id0058",1,16,0,0,"AI","training_others",6,4,"DarkOrchid","f","accept",4,4714
"1216","id0058",1,17,0,0,"AI","training_others",7,3,"DarkOrchid","f","accept",3,458
"1217","id0058",1,18,0,0,"human","training_others",9,1,"GoldenRod","f","accept",1,818
"1218","id0058",1,19,0,0,"AI","training_others",6,4,"DarkOrchid","f","accept",4,471
"1219","id0058",1,20,0,0,"human","training_others",5,5,"GoldenRod","f","accept",5,1290
"1220","id0058",1,21,0,0,"AI","training_others",6,4,"DarkOrchid","f","accept",4,582
"1221","id0058",1,22,0,0,"AI","training_others",4,6,"DarkOrchid","f","accept",6,1196
"1222","id0058",1,24,0,0,"AI","training_others",6,4,"DarkOrchid","f","accept",4,2551
"1223","id0060",0,1,1,0,"practice","Practice",6,4,"black","f","accept",4,1946
"1224","id0060",0,2,1,0,"practice","Practice",5,5,"black","f","accept",5,939
"1225","id0060",1,1,0,0,"AI","training_self",4,6,"GoldenRod","f","accept",6,1147
"1226","id0060",1,2,0,0,"human","training_self",9,1,"DarkOrchid","j","reject",0,1445
"1227","id0060",1,3,0,0,"AI","training_self",9,1,"GoldenRod","j","reject",0,1635
"1228","id0060",1,4,0,0,"AI","training_self",5,5,"GoldenRod","f","accept",5,1126
"1229","id0060",1,5,0,0,"human","training_self",7,3,"DarkOrchid","f","accept",3,4590
"1230","id0060",1,6,0,0,"AI","training_self",7,3,"GoldenRod","f","accept",3,1052
"1231","id0060",1,7,0,0,"AI","training_self",6,4,"GoldenRod","f","accept",4,1570
"1232","id0060",1,8,0,0,"AI","training_self",4,6,"GoldenRod","f","accept",6,587
"1233","id0060",1,9,0,0,"AI","training_self",5,5,"GoldenRod","f","accept",5,388
"1234","id0060",1,10,0,0,"AI","training_self",8,2,"GoldenRod","j","reject",0,2831
